[
  {
    "USUBJID": "001-003",
    "ARM": "Placebo",
    "ARMCD": "PBO",
    "ACTARM": "Placebo",
    "ACTARMCD": "PBO",
    "TRT01P": "Placebo",
    "TRT01A": "Placebo",
    "RANDDT": "2024-03-15",
    "TRTSDT": "2024-03-15",
    "TRTENDT": "2025-03-03",
    "STUDYID": "ONCOLOGY-001",
    "AVISIT": "Visit 1",
    "AVISITN": 1,
    "ADY": 0,
    "TRLOC": "liver",
    "TRGRPID": "T01",
    "TRLNKID": "T01",
    "TRTESTCD": "LDIAM",
    "TRTEST": "Longest Diameter",
    "TRORRES": "3.0",
    "TRORRESU": "cm",
    "TRSTRESN": 3.0116,
    "TRSTRESU": "cm"
  },
  {
    "USUBJID": "001-003",
    "ARM": "Placebo",
    "ARMCD": "PBO",
    "ACTARM": "Placebo",
    "ACTARMCD": "PBO",
    "TRT01P": "Placebo",
    "TRT01A": "Placebo",
    "RANDDT": "2024-03-15",
    "TRTSDT": "2024-03-15",
    "TRTENDT": "2025-03-03",
    "STUDYID": "ONCOLOGY-001",
    "AVISIT": "Visit 1",
    "AVISITN": 1,
    "ADY": 0,
    "TRLOC": "liver",
    "TRGRPID": "T02",
    "TRLNKID": "T02",
    "TRTESTCD": "LDIAM",
    "TRTEST": "Longest Diameter",
    "TRORRES": "2.4",
    "TRORRESU": "cm",
    "TRSTRESN": 2.4092,
    "TRSTRESU": "cm"
  },
  {
    "USUBJID": "001-003",
    "ARM": "Placebo",
    "ARMCD": "PBO",
    "ACTARM": "Placebo",
    "ACTARMCD": "PBO",
    "TRT01P": "Placebo",
    "TRT01A": "Placebo",
    "RANDDT": "2024-03-15",
    "TRTSDT": "2024-03-15",
    "TRTENDT": "2025-03-03",
    "STUDYID": "ONCOLOGY-001",
    "AVISIT": "Visit 1",
    "AVISITN": 1,
    "ADY": 0,
    "TRLOC": "liver",
    "TRGRPID": "T03",
    "TRLNKID": "T03",
    "TRTESTCD": "LDIAM",
    "TRTEST": "Longest Diameter",
    "TRORRES": "1.8",
    "TRORRESU": "cm",
    "TRSTRESN": 1.8069,
    "TRSTRESU": "cm"
  },
  {
    "USUBJID": "001-003",
    "ARM": "Placebo",
    "ARMCD": "PBO",
    "ACTARM": "Placebo",
    "ACTARMCD": "PBO",
    "TRT01P": "Placebo",
    "TRT01A": "Placebo",
    "RANDDT": "2024-03-15",
    "TRTSDT": "2024-03-15",
    "TRTENDT": "2025-03-03",
    "STUDYID": "ONCOLOGY-001",
    "AVISIT": "Visit 1",
    "AVISITN": 1,
    "ADY": 0,
    "TRLOC": "lung",
    "TRGRPID": "T06",
    "TRLNKID": "T06",
    "TRTESTCD": "LDIAM",
    "TRTEST": "Longest Diameter",
    "TRORRES": "2.2",
    "TRORRESU": "cm",
    "TRSTRESN": 2.1511,
    "TRSTRESU": "cm"
  },
  {
    "USUBJID": "001-003",
    "ARM": "Placebo",
    "ARMCD": "PBO",
    "ACTARM": "Placebo",
    "ACTARMCD": "PBO",
    "TRT01P": "Placebo",
    "TRT01A": "Placebo",
    "RANDDT": "2024-03-15",
    "TRTSDT": "2024-03-15",
    "TRTENDT": "2025-03-03",
    "STUDYID": "ONCOLOGY-001",
    "AVISIT": "Visit 1",
    "AVISITN": 1,
    "ADY": 0,
    "TRLOC": "lung",
    "TRGRPID": "T07",
    "TRLNKID": "T07",
    "TRTESTCD": "LDIAM",
    "TRTEST": "Longest Diameter",
    "TRORRES": "1.5",
    "TRORRESU": "cm",
    "TRSTRESN": 1.5488,
    "TRSTRESU": "cm"
  },
  {
    "USUBJID": "001-003",
    "ARM": "Placebo",
    "ARMCD": "PBO",
    "ACTARM": "Placebo",
    "ACTARMCD": "PBO",
    "TRT01P": "Placebo",
    "TRT01A": "Placebo",
    "RANDDT": "2024-03-15",
    "TRTSDT": "2024-03-15",
    "TRTENDT": "2025-03-03",
    "STUDYID": "ONCOLOGY-001",
    "AVISIT": "Visit 2",
    "AVISITN": 2,
    "ADY": 45,
    "TRLOC": "liver",
    "TRGRPID": "T01",
    "TRLNKID": "T01",
    "TRTESTCD": "LDIAM",
    "TRTEST": "Longest Diameter",
    "TRORRES": "3.1",
    "TRORRESU": "cm",
    "TRSTRESN": 3.1104,
    "TRSTRESU": "cm"
  },
  {
    "USUBJID": "001-003",
    "ARM": "Placebo",
    "ARMCD": "PBO",
    "ACTARM": "Placebo",
    "ACTARMCD": "PBO",
    "TRT01P": "Placebo",
    "TRT01A": "Placebo",
    "RANDDT": "2024-03-15",
    "TRTSDT": "2024-03-15",
    "TRTENDT": "2025-03-03",
    "STUDYID": "ONCOLOGY-001",
    "AVISIT": "Visit 2",
    "AVISITN": 2,
    "ADY": 45,
    "TRLOC": "liver",
    "TRGRPID": "T02",
    "TRLNKID": "T02",
    "TRTESTCD": "LDIAM",
    "TRTEST": "Longest Diameter",
    "TRORRES": "2.5",
    "TRORRESU": "cm",
    "TRSTRESN": 2.4556,
    "TRSTRESU": "cm"
  },
  {
    "USUBJID": "001-003",
    "ARM": "Placebo",
    "ARMCD": "PBO",
    "ACTARM": "Placebo",
    "ACTARMCD": "PBO",
    "TRT01P": "Placebo",
    "TRT01A": "Placebo",
    "RANDDT": "2024-03-15",
    "TRTSDT": "2024-03-15",
    "TRTENDT": "2025-03-03",
    "STUDYID": "ONCOLOGY-001",
    "AVISIT": "Visit 2",
    "AVISITN": 2,
    "ADY": 45,
    "TRLOC": "liver",
    "TRGRPID": "T03",
    "TRLNKID": "T03",
    "TRTESTCD": "LDIAM",
    "TRTEST": "Longest Diameter",
    "TRORRES": "1.9",
    "TRORRESU": "cm",
    "TRSTRESN": 1.8826,
    "TRSTRESU": "cm"
  },
  {
    "USUBJID": "001-003",
    "ARM": "Placebo",
    "ARMCD": "PBO",
    "ACTARM": "Placebo",
    "ACTARMCD": "PBO",
    "TRT01P": "Placebo",
    "TRT01A": "Placebo",
    "RANDDT": "2024-03-15",
    "TRTSDT": "2024-03-15",
    "TRTENDT": "2025-03-03",
    "STUDYID": "ONCOLOGY-001",
    "AVISIT": "Visit 2",
    "AVISITN": 2,
    "ADY": 45,
    "TRLOC": "liver",
    "TRGRPID": "T04",
    "TRLNKID": "T04",
    "TRTESTCD": "LDIAM",
    "TRTEST": "Longest Diameter",
    "TRORRES": "1.5",
    "TRORRESU": "cm",
    "TRSTRESN": 1.4733,
    "TRSTRESU": "cm"
  },
  {
    "USUBJID": "001-003",
    "ARM": "Placebo",
    "ARMCD": "PBO",
    "ACTARM": "Placebo",
    "ACTARMCD": "PBO",
    "TRT01P": "Placebo",
    "TRT01A": "Placebo",
    "RANDDT": "2024-03-15",
    "TRTSDT": "2024-03-15",
    "TRTENDT": "2025-03-03",
    "STUDYID": "ONCOLOGY-001",
    "AVISIT": "Visit 2",
    "AVISITN": 2,
    "ADY": 45,
    "TRLOC": "lung",
    "TRGRPID": "T06",
    "TRLNKID": "T06",
    "TRTESTCD": "LDIAM",
    "TRTEST": "Longest Diameter",
    "TRORRES": "2.2",
    "TRORRESU": "cm",
    "TRSTRESN": 2.21,
    "TRSTRESU": "cm"
  },
  {
    "USUBJID": "001-003",
    "ARM": "Placebo",
    "ARMCD": "PBO",
    "ACTARM": "Placebo",
    "ACTARMCD": "PBO",
    "TRT01P": "Placebo",
    "TRT01A": "Placebo",
    "RANDDT": "2024-03-15",
    "TRTSDT": "2024-03-15",
    "TRTENDT": "2025-03-03",
    "STUDYID": "ONCOLOGY-001",
    "AVISIT": "Visit 2",
    "AVISITN": 2,
    "ADY": 45,
    "TRLOC": "lung",
    "TRGRPID": "T07",
    "TRLNKID": "T07",
    "TRTESTCD": "LDIAM",
    "TRTEST": "Longest Diameter",
    "TRORRES": "1.6",
    "TRORRESU": "cm",
    "TRSTRESN": 1.5552,
    "TRSTRESU": "cm"
  },
  {
    "USUBJID": "001-003",
    "ARM": "Placebo",
    "ARMCD": "PBO",
    "ACTARM": "Placebo",
    "ACTARMCD": "PBO",
    "TRT01P": "Placebo",
    "TRT01A": "Placebo",
    "RANDDT": "2024-03-15",
    "TRTSDT": "2024-03-15",
    "TRTENDT": "2025-03-03",
    "STUDYID": "ONCOLOGY-001",
    "AVISIT": "Visit 2",
    "AVISITN": 2,
    "ADY": 45,
    "TRLOC": "lung",
    "TRGRPID": "T08",
    "TRLNKID": "T08",
    "TRTESTCD": "LDIAM",
    "TRTEST": "Longest Diameter",
    "TRORRES": "1.0",
    "TRORRESU": "cm",
    "TRSTRESN": 0.9822,
    "TRSTRESU": "cm"
  },
  {
    "USUBJID": "001-003",
    "ARM": "Placebo",
    "ARMCD": "PBO",
    "ACTARM": "Placebo",
    "ACTARMCD": "PBO",
    "TRT01P": "Placebo",
    "TRT01A": "Placebo",
    "RANDDT": "2024-03-15",
    "TRTSDT": "2024-03-15",
    "TRTENDT": "2025-03-03",
    "STUDYID": "ONCOLOGY-001",
    "AVISIT": "Visit 3",
    "AVISITN": 3,
    "ADY": 94,
    "TRLOC": "liver",
    "TRGRPID": "T01",
    "TRLNKID": "T01",
    "TRTESTCD": "LDIAM",
    "TRTEST": "Longest Diameter",
    "TRORRES": "3.4",
    "TRORRESU": "cm",
    "TRSTRESN": 3.3969,
    "TRSTRESU": "cm"
  },
  {
    "USUBJID": "001-003",
    "ARM": "Placebo",
    "ARMCD": "PBO",
    "ACTARM": "Placebo",
    "ACTARMCD": "PBO",
    "TRT01P": "Placebo",
    "TRT01A": "Placebo",
    "RANDDT": "2024-03-15",
    "TRTSDT": "2024-03-15",
    "TRTENDT": "2025-03-03",
    "STUDYID": "ONCOLOGY-001",
    "AVISIT": "Visit 3",
    "AVISITN": 3,
    "ADY": 94,
    "TRLOC": "liver",
    "TRGRPID": "T02",
    "TRLNKID": "T02",
    "TRTESTCD": "LDIAM",
    "TRTEST": "Longest Diameter",
    "TRORRES": "2.7",
    "TRORRESU": "cm",
    "TRSTRESN": 2.7175,
    "TRSTRESU": "cm"
  },
  {
    "USUBJID": "001-003",
    "ARM": "Placebo",
    "ARMCD": "PBO",
    "ACTARM": "Placebo",
    "ACTARMCD": "PBO",
    "TRT01P": "Placebo",
    "TRT01A": "Placebo",
    "RANDDT": "2024-03-15",
    "TRTSDT": "2024-03-15",
    "TRTENDT": "2025-03-03",
    "STUDYID": "ONCOLOGY-001",
    "AVISIT": "Visit 3",
    "AVISITN": 3,
    "ADY": 94,
    "TRLOC": "liver",
    "TRGRPID": "T03.1",
    "TRLNKID": "T03.1",
    "TRTESTCD": "LDIAM",
    "TRTEST": "Longest Diameter",
    "TRORRES": "1.1",
    "TRORRESU": "cm",
    "TRSTRESN": 1.104,
    "TRSTRESU": "cm"
  },
  {
    "USUBJID": "001-003",
    "ARM": "Placebo",
    "ARMCD": "PBO",
    "ACTARM": "Placebo",
    "ACTARMCD": "PBO",
    "TRT01P": "Placebo",
    "TRT01A": "Placebo",
    "RANDDT": "2024-03-15",
    "TRTSDT": "2024-03-15",
    "TRTENDT": "2025-03-03",
    "STUDYID": "ONCOLOGY-001",
    "AVISIT": "Visit 3",
    "AVISITN": 3,
    "ADY": 94,
    "TRLOC": "liver",
    "TRGRPID": "T03.2",
    "TRLNKID": "T03.2",
    "TRTESTCD": "LDIAM",
    "TRTEST": "Longest Diameter",
    "TRORRES": "1.0",
    "TRORRESU": "cm",
    "TRSTRESN": 1.0191,
    "TRSTRESU": "cm"
  },
  {
    "USUBJID": "001-003",
    "ARM": "Placebo",
    "ARMCD": "PBO",
    "ACTARM": "Placebo",
    "ACTARMCD": "PBO",
    "TRT01P": "Placebo",
    "TRT01A": "Placebo",
    "RANDDT": "2024-03-15",
    "TRTSDT": "2024-03-15",
    "TRTENDT": "2025-03-03",
    "STUDYID": "ONCOLOGY-001",
    "AVISIT": "Visit 3",
    "AVISITN": 3,
    "ADY": 94,
    "TRLOC": "liver",
    "TRGRPID": "T04",
    "TRLNKID": "T04",
    "TRTESTCD": "LDIAM",
    "TRTEST": "Longest Diameter",
    "TRORRES": "1.6",
    "TRORRESU": "cm",
    "TRSTRESN": 1.6135,
    "TRSTRESU": "cm"
  },
  {
    "USUBJID": "001-003",
    "ARM": "Placebo",
    "ARMCD": "PBO",
    "ACTARM": "Placebo",
    "ACTARMCD": "PBO",
    "TRT01P": "Placebo",
    "TRT01A": "Placebo",
    "RANDDT": "2024-03-15",
    "TRTSDT": "2024-03-15",
    "TRTENDT": "2025-03-03",
    "STUDYID": "ONCOLOGY-001",
    "AVISIT": "Visit 3",
    "AVISITN": 3,
    "ADY": 94,
    "TRLOC": "lung",
    "TRGRPID": "T06",
    "TRLNKID": "T06",
    "TRTESTCD": "LDIAM",
    "TRTEST": "Longest Diameter",
    "TRORRES": "2.5",
    "TRORRESU": "cm",
    "TRSTRESN": 2.4627,
    "TRSTRESU": "cm"
  },
  {
    "USUBJID": "001-003",
    "ARM": "Placebo",
    "ARMCD": "PBO",
    "ACTARM": "Placebo",
    "ACTARMCD": "PBO",
    "TRT01P": "Placebo",
    "TRT01A": "Placebo",
    "RANDDT": "2024-03-15",
    "TRTSDT": "2024-03-15",
    "TRTENDT": "2025-03-03",
    "STUDYID": "ONCOLOGY-001",
    "AVISIT": "Visit 3",
    "AVISITN": 3,
    "ADY": 94,
    "TRLOC": "lung",
    "TRGRPID": "T07",
    "TRLNKID": "T07",
    "TRTESTCD": "LDIAM",
    "TRTEST": "Longest Diameter",
    "TRORRES": "1.7",
    "TRORRESU": "cm",
    "TRSTRESN": 1.6984,
    "TRSTRESU": "cm"
  },
  {
    "USUBJID": "001-003",
    "ARM": "Placebo",
    "ARMCD": "PBO",
    "ACTARM": "Placebo",
    "ACTARMCD": "PBO",
    "TRT01P": "Placebo",
    "TRT01A": "Placebo",
    "RANDDT": "2024-03-15",
    "TRTSDT": "2024-03-15",
    "TRTENDT": "2025-03-03",
    "STUDYID": "ONCOLOGY-001",
    "AVISIT": "Visit 3",
    "AVISITN": 3,
    "ADY": 94,
    "TRLOC": "lung",
    "TRGRPID": "T08",
    "TRLNKID": "T08",
    "TRTESTCD": "LDIAM",
    "TRTEST": "Longest Diameter",
    "TRORRES": "1.1",
    "TRORRESU": "cm",
    "TRSTRESN": 1.104,
    "TRSTRESU": "cm"
  },
  {
    "USUBJID": "001-018",
    "ARM": "Drug B 100 mg BID",
    "ARMCD": "B100BID",
    "ACTARM": "Drug B 100 mg BID",
    "ACTARMCD": "B100BID",
    "TRT01P": "Drug B 100 mg BID",
    "TRT01A": "Drug B 100 mg BID",
    "RANDDT": "2024-03-26",
    "TRTSDT": "2024-03-26",
    "TRTENDT": "2025-01-04",
    "STUDYID": "ONCOLOGY-001",
    "AVISIT": "Visit 1",
    "AVISITN": 1,
    "ADY": 0,
    "TRLOC": "brain",
    "TRGRPID": "T10",
    "TRLNKID": "T10",
    "TRTESTCD": "LDIAM",
    "TRTEST": "Longest Diameter",
    "TRORRES": "1.2",
    "TRORRESU": "cm",
    "TRSTRESN": 1.1677,
    "TRSTRESU": "cm"
  },
  {
    "USUBJID": "001-018",
    "ARM": "Drug B 100 mg BID",
    "ARMCD": "B100BID",
    "ACTARM": "Drug B 100 mg BID",
    "ACTARMCD": "B100BID",
    "TRT01P": "Drug B 100 mg BID",
    "TRT01A": "Drug B 100 mg BID",
    "RANDDT": "2024-03-26",
    "TRTSDT": "2024-03-26",
    "TRTENDT": "2025-01-04",
    "STUDYID": "ONCOLOGY-001",
    "AVISIT": "Visit 1",
    "AVISITN": 1,
    "ADY": 0,
    "TRLOC": "kidney",
    "TRGRPID": "T20",
    "TRLNKID": "T20",
    "TRTESTCD": "LDIAM",
    "TRTEST": "Longest Diameter",
    "TRORRES": "2.1",
    "TRORRESU": "cm",
    "TRSTRESN": 2.1408,
    "TRSTRESU": "cm"
  },
  {
    "USUBJID": "001-018",
    "ARM": "Drug B 100 mg BID",
    "ARMCD": "B100BID",
    "ACTARM": "Drug B 100 mg BID",
    "ACTARMCD": "B100BID",
    "TRT01P": "Drug B 100 mg BID",
    "TRT01A": "Drug B 100 mg BID",
    "RANDDT": "2024-03-26",
    "TRTSDT": "2024-03-26",
    "TRTENDT": "2025-01-04",
    "STUDYID": "ONCOLOGY-001",
    "AVISIT": "Visit 1",
    "AVISITN": 1,
    "ADY": 0,
    "TRLOC": "kidney",
    "TRGRPID": "T21",
    "TRLNKID": "T21",
    "TRTESTCD": "LDIAM",
    "TRTEST": "Longest Diameter",
    "TRORRES": "1.6",
    "TRORRESU": "cm",
    "TRSTRESN": 1.5569,
    "TRSTRESU": "cm"
  },
  {
    "USUBJID": "001-018",
    "ARM": "Drug B 100 mg BID",
    "ARMCD": "B100BID",
    "ACTARM": "Drug B 100 mg BID",
    "ACTARMCD": "B100BID",
    "TRT01P": "Drug B 100 mg BID",
    "TRT01A": "Drug B 100 mg BID",
    "RANDDT": "2024-03-26",
    "TRTSDT": "2024-03-26",
    "TRTENDT": "2025-01-04",
    "STUDYID": "ONCOLOGY-001",
    "AVISIT": "Visit 1",
    "AVISITN": 1,
    "ADY": 0,
    "TRLOC": "lung",
    "TRGRPID": "T06",
    "TRLNKID": "T06",
    "TRTESTCD": "LDIAM",
    "TRTEST": "Longest Diameter",
    "TRORRES": "2.4",
    "TRORRESU": "cm",
    "TRSTRESN": 2.4327,
    "TRSTRESU": "cm"
  },
  {
    "USUBJID": "001-018",
    "ARM": "Drug B 100 mg BID",
    "ARMCD": "B100BID",
    "ACTARM": "Drug B 100 mg BID",
    "ACTARMCD": "B100BID",
    "TRT01P": "Drug B 100 mg BID",
    "TRT01A": "Drug B 100 mg BID",
    "RANDDT": "2024-03-26",
    "TRTSDT": "2024-03-26",
    "TRTENDT": "2025-01-04",
    "STUDYID": "ONCOLOGY-001",
    "AVISIT": "Visit 1",
    "AVISITN": 1,
    "ADY": 0,
    "TRLOC": "lung",
    "TRGRPID": "T07",
    "TRLNKID": "T07",
    "TRTESTCD": "LDIAM",
    "TRTEST": "Longest Diameter",
    "TRORRES": "1.8",
    "TRORRESU": "cm",
    "TRSTRESN": 1.7516,
    "TRSTRESU": "cm"
  },
  {
    "USUBJID": "001-018",
    "ARM": "Drug B 100 mg BID",
    "ARMCD": "B100BID",
    "ACTARM": "Drug B 100 mg BID",
    "ACTARMCD": "B100BID",
    "TRT01P": "Drug B 100 mg BID",
    "TRT01A": "Drug B 100 mg BID",
    "RANDDT": "2024-03-26",
    "TRTSDT": "2024-03-26",
    "TRTENDT": "2025-01-04",
    "STUDYID": "ONCOLOGY-001",
    "AVISIT": "Visit 2",
    "AVISITN": 2,
    "ADY": 56,
    "TRLOC": "brain",
    "TRGRPID": "T10",
    "TRLNKID": "T10",
    "TRTESTCD": "LDIAM",
    "TRTEST": "Longest Diameter",
    "TRORRES": "0.4",
    "TRORRESU": "cm",
    "TRSTRESN": 0.4387,
    "TRSTRESU": "cm"
  },
  {
    "USUBJID": "001-018",
    "ARM": "Drug B 100 mg BID",
    "ARMCD": "B100BID",
    "ACTARM": "Drug B 100 mg BID",
    "ACTARMCD": "B100BID",
    "TRT01P": "Drug B 100 mg BID",
    "TRT01A": "Drug B 100 mg BID",
    "RANDDT": "2024-03-26",
    "TRTSDT": "2024-03-26",
    "TRTENDT": "2025-01-04",
    "STUDYID": "ONCOLOGY-001",
    "AVISIT": "Visit 2",
    "AVISITN": 2,
    "ADY": 56,
    "TRLOC": "kidney",
    "TRGRPID": "T20",
    "TRLNKID": "T20",
    "TRTESTCD": "LDIAM",
    "TRTEST": "Longest Diameter",
    "TRORRES": "0.8",
    "TRORRESU": "cm",
    "TRSTRESN": 0.81,
    "TRSTRESU": "cm"
  },
  {
    "USUBJID": "001-018",
    "ARM": "Drug B 100 mg BID",
    "ARMCD": "B100BID",
    "ACTARM": "Drug B 100 mg BID",
    "ACTARMCD": "B100BID",
    "TRT01P": "Drug B 100 mg BID",
    "TRT01A": "Drug B 100 mg BID",
    "RANDDT": "2024-03-26",
    "TRTSDT": "2024-03-26",
    "TRTENDT": "2025-01-04",
    "STUDYID": "ONCOLOGY-001",
    "AVISIT": "Visit 2",
    "AVISITN": 2,
    "ADY": 56,
    "TRLOC": "kidney",
    "TRGRPID": "T21",
    "TRLNKID": "T21",
    "TRTESTCD": "LDIAM",
    "TRTEST": "Longest Diameter",
    "TRORRES": "0.6",
    "TRORRESU": "cm",
    "TRSTRESN": 0.5737,
    "TRSTRESU": "cm"
  },
  {
    "USUBJID": "001-018",
    "ARM": "Drug B 100 mg BID",
    "ARMCD": "B100BID",
    "ACTARM": "Drug B 100 mg BID",
    "ACTARMCD": "B100BID",
    "TRT01P": "Drug B 100 mg BID",
    "TRT01A": "Drug B 100 mg BID",
    "RANDDT": "2024-03-26",
    "TRTSDT": "2024-03-26",
    "TRTENDT": "2025-01-04",
    "STUDYID": "ONCOLOGY-001",
    "AVISIT": "Visit 2",
    "AVISITN": 2,
    "ADY": 56,
    "TRLOC": "lung",
    "TRGRPID": "T06",
    "TRLNKID": "T06",
    "TRTESTCD": "LDIAM",
    "TRTEST": "Longest Diameter",
    "TRORRES": "0.9",
    "TRORRESU": "cm",
    "TRSTRESN": 0.9112,
    "TRSTRESU": "cm"
  },
  {
    "USUBJID": "001-018",
    "ARM": "Drug B 100 mg BID",
    "ARMCD": "B100BID",
    "ACTARM": "Drug B 100 mg BID",
    "ACTARMCD": "B100BID",
    "TRT01P": "Drug B 100 mg BID",
    "TRT01A": "Drug B 100 mg BID",
    "RANDDT": "2024-03-26",
    "TRTSDT": "2024-03-26",
    "TRTENDT": "2025-01-04",
    "STUDYID": "ONCOLOGY-001",
    "AVISIT": "Visit 2",
    "AVISITN": 2,
    "ADY": 56,
    "TRLOC": "lung",
    "TRGRPID": "T07",
    "TRLNKID": "T07",
    "TRTESTCD": "LDIAM",
    "TRTEST": "Longest Diameter",
    "TRORRES": "0.6",
    "TRORRESU": "cm",
    "TRSTRESN": 0.6412,
    "TRSTRESU": "cm"
  },
  {
    "USUBJID": "001-018",
    "ARM": "Drug B 100 mg BID",
    "ARMCD": "B100BID",
    "ACTARM": "Drug B 100 mg BID",
    "ACTARMCD": "B100BID",
    "TRT01P": "Drug B 100 mg BID",
    "TRT01A": "Drug B 100 mg BID",
    "RANDDT": "2024-03-26",
    "TRTSDT": "2024-03-26",
    "TRTENDT": "2025-01-04",
    "STUDYID": "ONCOLOGY-001",
    "AVISIT": "Visit 3",
    "AVISITN": 3,
    "ADY": 105,
    "TRLOC": "brain",
    "TRGRPID": "T10.1",
    "TRLNKID": "T10.1",
    "TRTESTCD": "LDIAM",
    "TRTEST": "Longest Diameter",
    "TRORRES": "0.2",
    "TRORRESU": "cm",
    "TRSTRESN": 0.2161,
    "TRSTRESU": "cm"
  },
  {
    "USUBJID": "001-018",
    "ARM": "Drug B 100 mg BID",
    "ARMCD": "B100BID",
    "ACTARM": "Drug B 100 mg BID",
    "ACTARMCD": "B100BID",
    "TRT01P": "Drug B 100 mg BID",
    "TRT01A": "Drug B 100 mg BID",
    "RANDDT": "2024-03-26",
    "TRTSDT": "2024-03-26",
    "TRTENDT": "2025-01-04",
    "STUDYID": "ONCOLOGY-001",
    "AVISIT": "Visit 3",
    "AVISITN": 3,
    "ADY": 105,
    "TRLOC": "brain",
    "TRGRPID": "T10.2",
    "TRLNKID": "T10.2",
    "TRTESTCD": "LDIAM",
    "TRTEST": "Longest Diameter",
    "TRORRES": "0.2",
    "TRORRESU": "cm",
    "TRSTRESN": 0.1852,
    "TRSTRESU": "cm"
  },
  {
    "USUBJID": "001-018",
    "ARM": "Drug B 100 mg BID",
    "ARMCD": "B100BID",
    "ACTARM": "Drug B 100 mg BID",
    "ACTARMCD": "B100BID",
    "TRT01P": "Drug B 100 mg BID",
    "TRT01A": "Drug B 100 mg BID",
    "RANDDT": "2024-03-26",
    "TRTSDT": "2024-03-26",
    "TRTENDT": "2025-01-04",
    "STUDYID": "ONCOLOGY-001",
    "AVISIT": "Visit 3",
    "AVISITN": 3,
    "ADY": 105,
    "TRLOC": "kidney",
    "TRGRPID": "T20",
    "TRLNKID": "T20",
    "TRTESTCD": "LDIAM",
    "TRTEST": "Longest Diameter",
    "TRORRES": "0.8",
    "TRORRESU": "cm",
    "TRSTRESN": 0.8026,
    "TRSTRESU": "cm"
  },
  {
    "USUBJID": "001-018",
    "ARM": "Drug B 100 mg BID",
    "ARMCD": "B100BID",
    "ACTARM": "Drug B 100 mg BID",
    "ACTARMCD": "B100BID",
    "TRT01P": "Drug B 100 mg BID",
    "TRT01A": "Drug B 100 mg BID",
    "RANDDT": "2024-03-26",
    "TRTSDT": "2024-03-26",
    "TRTENDT": "2025-01-04",
    "STUDYID": "ONCOLOGY-001",
    "AVISIT": "Visit 3",
    "AVISITN": 3,
    "ADY": 105,
    "TRLOC": "kidney",
    "TRGRPID": "T21",
    "TRLNKID": "T21",
    "TRTESTCD": "LDIAM",
    "TRTEST": "Longest Diameter",
    "TRORRES": "0.6",
    "TRORRESU": "cm",
    "TRSTRESN": 0.5556,
    "TRSTRESU": "cm"
  },
  {
    "USUBJID": "001-018",
    "ARM": "Drug B 100 mg BID",
    "ARMCD": "B100BID",
    "ACTARM": "Drug B 100 mg BID",
    "ACTARMCD": "B100BID",
    "TRT01P": "Drug B 100 mg BID",
    "TRT01A": "Drug B 100 mg BID",
    "RANDDT": "2024-03-26",
    "TRTSDT": "2024-03-26",
    "TRTENDT": "2025-01-04",
    "STUDYID": "ONCOLOGY-001",
    "AVISIT": "Visit 3",
    "AVISITN": 3,
    "ADY": 105,
    "TRLOC": "lung",
    "TRGRPID": "T06",
    "TRLNKID": "T06",
    "TRTESTCD": "LDIAM",
    "TRTEST": "Longest Diameter",
    "TRORRES": "0.9",
    "TRORRESU": "cm",
    "TRSTRESN": 0.8952,
    "TRSTRESU": "cm"
  },
  {
    "USUBJID": "001-018",
    "ARM": "Drug B 100 mg BID",
    "ARMCD": "B100BID",
    "ACTARM": "Drug B 100 mg BID",
    "ACTARMCD": "B100BID",
    "TRT01P": "Drug B 100 mg BID",
    "TRT01A": "Drug B 100 mg BID",
    "RANDDT": "2024-03-26",
    "TRTSDT": "2024-03-26",
    "TRTENDT": "2025-01-04",
    "STUDYID": "ONCOLOGY-001",
    "AVISIT": "Visit 3",
    "AVISITN": 3,
    "ADY": 105,
    "TRLOC": "lung",
    "TRGRPID": "T07",
    "TRLNKID": "T07",
    "TRTESTCD": "LDIAM",
    "TRTEST": "Longest Diameter",
    "TRORRES": "0.6",
    "TRORRESU": "cm",
    "TRSTRESN": 0.6174,
    "TRSTRESU": "cm"
  },
  {
    "USUBJID": "001-024",
    "ARM": "Placebo",
    "ARMCD": "PBO",
    "ACTARM": "Placebo",
    "ACTARMCD": "PBO",
    "TRT01P": "Placebo",
    "TRT01A": "Placebo",
    "RANDDT": "2024-05-12",
    "TRTSDT": "2024-05-12",
    "TRTENDT": "2025-03-17",
    "STUDYID": "ONCOLOGY-001",
    "AVISIT": "Visit 1",
    "AVISITN": 1,
    "ADY": 0,
    "TRLOC": "brain",
    "TRGRPID": "T10",
    "TRLNKID": "T10",
    "TRTESTCD": "LDIAM",
    "TRTEST": "Longest Diameter",
    "TRORRES": "1.1",
    "TRORRESU": "cm",
    "TRSTRESN": 1.1151,
    "TRSTRESU": "cm"
  },
  {
    "USUBJID": "001-024",
    "ARM": "Placebo",
    "ARMCD": "PBO",
    "ACTARM": "Placebo",
    "ACTARMCD": "PBO",
    "TRT01P": "Placebo",
    "TRT01A": "Placebo",
    "RANDDT": "2024-05-12",
    "TRTSDT": "2024-05-12",
    "TRTENDT": "2025-03-17",
    "STUDYID": "ONCOLOGY-001",
    "AVISIT": "Visit 4",
    "AVISITN": 4,
    "ADY": 152,
    "TRLOC": "brain",
    "TRGRPID": "T10.1",
    "TRLNKID": "T10.1",
    "TRTESTCD": "LDIAM",
    "TRTEST": "Longest Diameter",
    "TRORRES": "0.8",
    "TRORRESU": "cm",
    "TRSTRESN": 0.8314,
    "TRSTRESU": "cm"
  },
  {
    "USUBJID": "001-024",
    "ARM": "Placebo",
    "ARMCD": "PBO",
    "ACTARM": "Placebo",
    "ACTARMCD": "PBO",
    "TRT01P": "Placebo",
    "TRT01A": "Placebo",
    "RANDDT": "2024-05-12",
    "TRTSDT": "2024-05-12",
    "TRTENDT": "2025-03-17",
    "STUDYID": "ONCOLOGY-001",
    "AVISIT": "Visit 4",
    "AVISITN": 4,
    "ADY": 152,
    "TRLOC": "brain",
    "TRGRPID": "T10.2",
    "TRLNKID": "T10.2",
    "TRTESTCD": "LDIAM",
    "TRTEST": "Longest Diameter",
    "TRORRES": "0.7",
    "TRORRESU": "cm",
    "TRSTRESN": 0.7275,
    "TRSTRESU": "cm"
  },
  {
    "USUBJID": "001-024",
    "ARM": "Placebo",
    "ARMCD": "PBO",
    "ACTARM": "Placebo",
    "ACTARMCD": "PBO",
    "TRT01P": "Placebo",
    "TRT01A": "Placebo",
    "RANDDT": "2024-05-12",
    "TRTSDT": "2024-05-12",
    "TRTENDT": "2025-03-17",
    "STUDYID": "ONCOLOGY-001",
    "AVISIT": "Visit 4",
    "AVISITN": 4,
    "ADY": 152,
    "TRLOC": "brain",
    "TRGRPID": "T11",
    "TRLNKID": "T11",
    "TRTESTCD": "LDIAM",
    "TRTEST": "Longest Diameter",
    "TRORRES": "0.7",
    "TRORRESU": "cm",
    "TRSTRESN": 0.7275,
    "TRSTRESU": "cm"
  },
  {
    "USUBJID": "001-024",
    "ARM": "Placebo",
    "ARMCD": "PBO",
    "ACTARM": "Placebo",
    "ACTARMCD": "PBO",
    "TRT01P": "Placebo",
    "TRT01A": "Placebo",
    "RANDDT": "2024-05-12",
    "TRTSDT": "2024-05-12",
    "TRTENDT": "2025-03-17",
    "STUDYID": "ONCOLOGY-001",
    "AVISIT": "Visit 4",
    "AVISITN": 4,
    "ADY": 152,
    "TRLOC": "brain",
    "TRGRPID": "T12",
    "TRLNKID": "T12",
    "TRTESTCD": "LDIAM",
    "TRTEST": "Longest Diameter",
    "TRORRES": "0.5",
    "TRORRESU": "cm",
    "TRSTRESN": 0.5196,
    "TRSTRESU": "cm"
  },
  {
    "USUBJID": "001-026",
    "ARM": "Drug A 200 mg QD",
    "ARMCD": "A200QD",
    "ACTARM": "Drug A 200 mg QD",
    "ACTARMCD": "A200QD",
    "TRT01P": "Drug A 200 mg QD",
    "TRT01A": "Drug A 200 mg QD",
    "RANDDT": "2024-02-07",
    "TRTSDT": "2024-02-07",
    "TRTENDT": "2024-06-25",
    "STUDYID": "ONCOLOGY-001",
    "AVISIT": "Visit 1",
    "AVISITN": 1,
    "ADY": 0,
    "TRLOC": "kidney",
    "TRGRPID": "T20",
    "TRLNKID": "T20",
    "TRTESTCD": "LDIAM",
    "TRTEST": "Longest Diameter",
    "TRORRES": "2.0",
    "TRORRESU": "cm",
    "TRSTRESN": 1.9705,
    "TRSTRESU": "cm"
  },
  {
    "USUBJID": "001-026",
    "ARM": "Drug A 200 mg QD",
    "ARMCD": "A200QD",
    "ACTARM": "Drug A 200 mg QD",
    "ACTARMCD": "A200QD",
    "TRT01P": "Drug A 200 mg QD",
    "TRT01A": "Drug A 200 mg QD",
    "RANDDT": "2024-02-07",
    "TRTSDT": "2024-02-07",
    "TRTENDT": "2024-06-25",
    "STUDYID": "ONCOLOGY-001",
    "AVISIT": "Visit 1",
    "AVISITN": 1,
    "ADY": 0,
    "TRLOC": "kidney",
    "TRGRPID": "T21",
    "TRLNKID": "T21",
    "TRTESTCD": "LDIAM",
    "TRTEST": "Longest Diameter",
    "TRORRES": "1.4",
    "TRORRESU": "cm",
    "TRSTRESN": 1.4331,
    "TRSTRESU": "cm"
  },
  {
    "USUBJID": "001-026",
    "ARM": "Drug A 200 mg QD",
    "ARMCD": "A200QD",
    "ACTARM": "Drug A 200 mg QD",
    "ACTARMCD": "A200QD",
    "TRT01P": "Drug A 200 mg QD",
    "TRT01A": "Drug A 200 mg QD",
    "RANDDT": "2024-02-07",
    "TRTSDT": "2024-02-07",
    "TRTENDT": "2024-06-25",
    "STUDYID": "ONCOLOGY-001",
    "AVISIT": "Visit 2",
    "AVISITN": 2,
    "ADY": 41,
    "TRLOC": "kidney",
    "TRGRPID": "T20",
    "TRLNKID": "T20",
    "TRTESTCD": "LDIAM",
    "TRTEST": "Longest Diameter",
    "TRORRES": "1.1",
    "TRORRESU": "cm",
    "TRSTRESN": 1.1254,
    "TRSTRESU": "cm"
  },
  {
    "USUBJID": "001-026",
    "ARM": "Drug A 200 mg QD",
    "ARMCD": "A200QD",
    "ACTARM": "Drug A 200 mg QD",
    "ACTARMCD": "A200QD",
    "TRT01P": "Drug A 200 mg QD",
    "TRT01A": "Drug A 200 mg QD",
    "RANDDT": "2024-02-07",
    "TRTSDT": "2024-02-07",
    "TRTENDT": "2024-06-25",
    "STUDYID": "ONCOLOGY-001",
    "AVISIT": "Visit 2",
    "AVISITN": 2,
    "ADY": 41,
    "TRLOC": "kidney",
    "TRGRPID": "T21",
    "TRLNKID": "T21",
    "TRTESTCD": "LDIAM",
    "TRTEST": "Longest Diameter",
    "TRORRES": "0.8",
    "TRORRESU": "cm",
    "TRSTRESN": 0.7972,
    "TRSTRESU": "cm"
  },
  {
    "USUBJID": "001-026",
    "ARM": "Drug A 200 mg QD",
    "ARMCD": "A200QD",
    "ACTARM": "Drug A 200 mg QD",
    "ACTARMCD": "A200QD",
    "TRT01P": "Drug A 200 mg QD",
    "TRT01A": "Drug A 200 mg QD",
    "RANDDT": "2024-02-07",
    "TRTSDT": "2024-02-07",
    "TRTENDT": "2024-06-25",
    "STUDYID": "ONCOLOGY-001",
    "AVISIT": "Visit 3",
    "AVISITN": 3,
    "ADY": 86,
    "TRLOC": "kidney",
    "TRGRPID": "T20",
    "TRLNKID": "T20",
    "TRTESTCD": "LDIAM",
    "TRTEST": "Longest Diameter",
    "TRORRES": "1.4",
    "TRORRESU": "cm",
    "TRSTRESN": 1.3845,
    "TRSTRESU": "cm"
  },
  {
    "USUBJID": "001-026",
    "ARM": "Drug A 200 mg QD",
    "ARMCD": "A200QD",
    "ACTARM": "Drug A 200 mg QD",
    "ACTARMCD": "A200QD",
    "TRT01P": "Drug A 200 mg QD",
    "TRT01A": "Drug A 200 mg QD",
    "RANDDT": "2024-02-07",
    "TRTSDT": "2024-02-07",
    "TRTENDT": "2024-06-25",
    "STUDYID": "ONCOLOGY-001",
    "AVISIT": "Visit 3",
    "AVISITN": 3,
    "ADY": 86,
    "TRLOC": "kidney",
    "TRGRPID": "T21",
    "TRLNKID": "T21",
    "TRTESTCD": "LDIAM",
    "TRTEST": "Longest Diameter",
    "TRORRES": "1.0",
    "TRORRESU": "cm",
    "TRSTRESN": 0.9585,
    "TRSTRESU": "cm"
  },
  {
    "USUBJID": "001-033",
    "ARM": "Drug B 100 mg BID",
    "ARMCD": "B100BID",
    "ACTARM": "Drug B 100 mg BID",
    "ACTARMCD": "B100BID",
    "TRT01P": "Drug B 100 mg BID",
    "TRT01A": "Drug B 100 mg BID",
    "RANDDT": "2024-06-06",
    "TRTSDT": "2024-06-06",
    "TRTENDT": "2025-05-18",
    "STUDYID": "ONCOLOGY-001",
    "AVISIT": "Visit 1",
    "AVISITN": 1,
    "ADY": 0,
    "TRLOC": "liver",
    "TRGRPID": "T01",
    "TRLNKID": "T01",
    "TRTESTCD": "LDIAM",
    "TRTEST": "Longest Diameter",
    "TRORRES": "4.0",
    "TRORRESU": "cm",
    "TRSTRESN": 3.9937,
    "TRSTRESU": "cm"
  },
  {
    "USUBJID": "001-033",
    "ARM": "Drug B 100 mg BID",
    "ARMCD": "B100BID",
    "ACTARM": "Drug B 100 mg BID",
    "ACTARMCD": "B100BID",
    "TRT01P": "Drug B 100 mg BID",
    "TRT01A": "Drug B 100 mg BID",
    "RANDDT": "2024-06-06",
    "TRTSDT": "2024-06-06",
    "TRTENDT": "2025-05-18",
    "STUDYID": "ONCOLOGY-001",
    "AVISIT": "Visit 1",
    "AVISITN": 1,
    "ADY": 0,
    "TRLOC": "liver",
    "TRGRPID": "T02",
    "TRLNKID": "T02",
    "TRTESTCD": "LDIAM",
    "TRTEST": "Longest Diameter",
    "TRORRES": "3.2",
    "TRORRESU": "cm",
    "TRSTRESN": 3.1949,
    "TRSTRESU": "cm"
  },
  {
    "USUBJID": "001-033",
    "ARM": "Drug B 100 mg BID",
    "ARMCD": "B100BID",
    "ACTARM": "Drug B 100 mg BID",
    "ACTARMCD": "B100BID",
    "TRT01P": "Drug B 100 mg BID",
    "TRT01A": "Drug B 100 mg BID",
    "RANDDT": "2024-06-06",
    "TRTSDT": "2024-06-06",
    "TRTENDT": "2025-05-18",
    "STUDYID": "ONCOLOGY-001",
    "AVISIT": "Visit 1",
    "AVISITN": 1,
    "ADY": 0,
    "TRLOC": "liver",
    "TRGRPID": "T03",
    "TRLNKID": "T03",
    "TRTESTCD": "LDIAM",
    "TRTEST": "Longest Diameter",
    "TRORRES": "2.4",
    "TRORRESU": "cm",
    "TRSTRESN": 2.3962,
    "TRSTRESU": "cm"
  },
  {
    "USUBJID": "001-033",
    "ARM": "Drug B 100 mg BID",
    "ARMCD": "B100BID",
    "ACTARM": "Drug B 100 mg BID",
    "ACTARMCD": "B100BID",
    "TRT01P": "Drug B 100 mg BID",
    "TRT01A": "Drug B 100 mg BID",
    "RANDDT": "2024-06-06",
    "TRTSDT": "2024-06-06",
    "TRTENDT": "2025-05-18",
    "STUDYID": "ONCOLOGY-001",
    "AVISIT": "Visit 1",
    "AVISITN": 1,
    "ADY": 0,
    "TRLOC": "lung",
    "TRGRPID": "T06",
    "TRLNKID": "T06",
    "TRTESTCD": "LDIAM",
    "TRTEST": "Longest Diameter",
    "TRORRES": "2.9",
    "TRORRESU": "cm",
    "TRSTRESN": 2.8526,
    "TRSTRESU": "cm"
  },
  {
    "USUBJID": "001-033",
    "ARM": "Drug B 100 mg BID",
    "ARMCD": "B100BID",
    "ACTARM": "Drug B 100 mg BID",
    "ACTARMCD": "B100BID",
    "TRT01P": "Drug B 100 mg BID",
    "TRT01A": "Drug B 100 mg BID",
    "RANDDT": "2024-06-06",
    "TRTSDT": "2024-06-06",
    "TRTENDT": "2025-05-18",
    "STUDYID": "ONCOLOGY-001",
    "AVISIT": "Visit 1",
    "AVISITN": 1,
    "ADY": 0,
    "TRLOC": "lung",
    "TRGRPID": "T07",
    "TRLNKID": "T07",
    "TRTESTCD": "LDIAM",
    "TRTEST": "Longest Diameter",
    "TRORRES": "2.1",
    "TRORRESU": "cm",
    "TRSTRESN": 2.0539,
    "TRSTRESU": "cm"
  },
  {
    "USUBJID": "001-033",
    "ARM": "Drug B 100 mg BID",
    "ARMCD": "B100BID",
    "ACTARM": "Drug B 100 mg BID",
    "ACTARMCD": "B100BID",
    "TRT01P": "Drug B 100 mg BID",
    "TRT01A": "Drug B 100 mg BID",
    "RANDDT": "2024-06-06",
    "TRTSDT": "2024-06-06",
    "TRTENDT": "2025-05-18",
    "STUDYID": "ONCOLOGY-001",
    "AVISIT": "Visit 2",
    "AVISITN": 2,
    "ADY": 68,
    "TRLOC": "liver",
    "TRGRPID": "T01",
    "TRLNKID": "T01",
    "TRTESTCD": "LDIAM",
    "TRTEST": "Longest Diameter",
    "TRORRES": "4.1",
    "TRORRESU": "cm",
    "TRSTRESN": 4.118,
    "TRSTRESU": "cm"
  },
  {
    "USUBJID": "001-033",
    "ARM": "Drug B 100 mg BID",
    "ARMCD": "B100BID",
    "ACTARM": "Drug B 100 mg BID",
    "ACTARMCD": "B100BID",
    "TRT01P": "Drug B 100 mg BID",
    "TRT01A": "Drug B 100 mg BID",
    "RANDDT": "2024-06-06",
    "TRTSDT": "2024-06-06",
    "TRTENDT": "2025-05-18",
    "STUDYID": "ONCOLOGY-001",
    "AVISIT": "Visit 2",
    "AVISITN": 2,
    "ADY": 68,
    "TRLOC": "liver",
    "TRGRPID": "T02",
    "TRLNKID": "T02",
    "TRTESTCD": "LDIAM",
    "TRTEST": "Longest Diameter",
    "TRORRES": "3.3",
    "TRORRESU": "cm",
    "TRSTRESN": 3.2511,
    "TRSTRESU": "cm"
  },
  {
    "USUBJID": "001-033",
    "ARM": "Drug B 100 mg BID",
    "ARMCD": "B100BID",
    "ACTARM": "Drug B 100 mg BID",
    "ACTARMCD": "B100BID",
    "TRT01P": "Drug B 100 mg BID",
    "TRT01A": "Drug B 100 mg BID",
    "RANDDT": "2024-06-06",
    "TRTSDT": "2024-06-06",
    "TRTENDT": "2025-05-18",
    "STUDYID": "ONCOLOGY-001",
    "AVISIT": "Visit 2",
    "AVISITN": 2,
    "ADY": 68,
    "TRLOC": "liver",
    "TRGRPID": "T03",
    "TRLNKID": "T03",
    "TRTESTCD": "LDIAM",
    "TRTEST": "Longest Diameter",
    "TRORRES": "2.5",
    "TRORRESU": "cm",
    "TRSTRESN": 2.4925,
    "TRSTRESU": "cm"
  },
  {
    "USUBJID": "001-033",
    "ARM": "Drug B 100 mg BID",
    "ARMCD": "B100BID",
    "ACTARM": "Drug B 100 mg BID",
    "ACTARMCD": "B100BID",
    "TRT01P": "Drug B 100 mg BID",
    "TRT01A": "Drug B 100 mg BID",
    "RANDDT": "2024-06-06",
    "TRTSDT": "2024-06-06",
    "TRTENDT": "2025-05-18",
    "STUDYID": "ONCOLOGY-001",
    "AVISIT": "Visit 2",
    "AVISITN": 2,
    "ADY": 68,
    "TRLOC": "liver",
    "TRGRPID": "T04",
    "TRLNKID": "T04",
    "TRTESTCD": "LDIAM",
    "TRTEST": "Longest Diameter",
    "TRORRES": "2.0",
    "TRORRESU": "cm",
    "TRSTRESN": 1.9506,
    "TRSTRESU": "cm"
  },
  {
    "USUBJID": "001-033",
    "ARM": "Drug B 100 mg BID",
    "ARMCD": "B100BID",
    "ACTARM": "Drug B 100 mg BID",
    "ACTARMCD": "B100BID",
    "TRT01P": "Drug B 100 mg BID",
    "TRT01A": "Drug B 100 mg BID",
    "RANDDT": "2024-06-06",
    "TRTSDT": "2024-06-06",
    "TRTENDT": "2025-05-18",
    "STUDYID": "ONCOLOGY-001",
    "AVISIT": "Visit 2",
    "AVISITN": 2,
    "ADY": 68,
    "TRLOC": "lung",
    "TRGRPID": "T06",
    "TRLNKID": "T06",
    "TRTESTCD": "LDIAM",
    "TRTEST": "Longest Diameter",
    "TRORRES": "2.9",
    "TRORRESU": "cm",
    "TRSTRESN": 2.926,
    "TRSTRESU": "cm"
  },
  {
    "USUBJID": "001-033",
    "ARM": "Drug B 100 mg BID",
    "ARMCD": "B100BID",
    "ACTARM": "Drug B 100 mg BID",
    "ACTARMCD": "B100BID",
    "TRT01P": "Drug B 100 mg BID",
    "TRT01A": "Drug B 100 mg BID",
    "RANDDT": "2024-06-06",
    "TRTSDT": "2024-06-06",
    "TRTENDT": "2025-05-18",
    "STUDYID": "ONCOLOGY-001",
    "AVISIT": "Visit 2",
    "AVISITN": 2,
    "ADY": 68,
    "TRLOC": "lung",
    "TRGRPID": "T07",
    "TRLNKID": "T07",
    "TRTESTCD": "LDIAM",
    "TRTEST": "Longest Diameter",
    "TRORRES": "2.1",
    "TRORRESU": "cm",
    "TRSTRESN": 2.059,
    "TRSTRESU": "cm"
  },
  {
    "USUBJID": "001-033",
    "ARM": "Drug B 100 mg BID",
    "ARMCD": "B100BID",
    "ACTARM": "Drug B 100 mg BID",
    "ACTARMCD": "B100BID",
    "TRT01P": "Drug B 100 mg BID",
    "TRT01A": "Drug B 100 mg BID",
    "RANDDT": "2024-06-06",
    "TRTSDT": "2024-06-06",
    "TRTENDT": "2025-05-18",
    "STUDYID": "ONCOLOGY-001",
    "AVISIT": "Visit 2",
    "AVISITN": 2,
    "ADY": 68,
    "TRLOC": "lung",
    "TRGRPID": "T08",
    "TRLNKID": "T08",
    "TRTESTCD": "LDIAM",
    "TRTEST": "Longest Diameter",
    "TRORRES": "1.3",
    "TRORRESU": "cm",
    "TRSTRESN": 1.3004,
    "TRSTRESU": "cm"
  },
  {
    "USUBJID": "001-033",
    "ARM": "Drug B 100 mg BID",
    "ARMCD": "B100BID",
    "ACTARM": "Drug B 100 mg BID",
    "ACTARMCD": "B100BID",
    "TRT01P": "Drug B 100 mg BID",
    "TRT01A": "Drug B 100 mg BID",
    "RANDDT": "2024-06-06",
    "TRTSDT": "2024-06-06",
    "TRTENDT": "2025-05-18",
    "STUDYID": "ONCOLOGY-001",
    "AVISIT": "Visit 3",
    "AVISITN": 3,
    "ADY": 114,
    "TRLOC": "liver",
    "TRGRPID": "T01",
    "TRLNKID": "T01",
    "TRTESTCD": "LDIAM",
    "TRTEST": "Longest Diameter",
    "TRORRES": "4.6",
    "TRORRESU": "cm",
    "TRSTRESN": 4.5593,
    "TRSTRESU": "cm"
  },
  {
    "USUBJID": "001-033",
    "ARM": "Drug B 100 mg BID",
    "ARMCD": "B100BID",
    "ACTARM": "Drug B 100 mg BID",
    "ACTARMCD": "B100BID",
    "TRT01P": "Drug B 100 mg BID",
    "TRT01A": "Drug B 100 mg BID",
    "RANDDT": "2024-06-06",
    "TRTSDT": "2024-06-06",
    "TRTENDT": "2025-05-18",
    "STUDYID": "ONCOLOGY-001",
    "AVISIT": "Visit 3",
    "AVISITN": 3,
    "ADY": 114,
    "TRLOC": "liver",
    "TRGRPID": "T02",
    "TRLNKID": "T02",
    "TRTESTCD": "LDIAM",
    "TRTEST": "Longest Diameter",
    "TRORRES": "3.6",
    "TRORRESU": "cm",
    "TRSTRESN": 3.6474,
    "TRSTRESU": "cm"
  },
  {
    "USUBJID": "001-033",
    "ARM": "Drug B 100 mg BID",
    "ARMCD": "B100BID",
    "ACTARM": "Drug B 100 mg BID",
    "ACTARMCD": "B100BID",
    "TRT01P": "Drug B 100 mg BID",
    "TRT01A": "Drug B 100 mg BID",
    "RANDDT": "2024-06-06",
    "TRTSDT": "2024-06-06",
    "TRTENDT": "2025-05-18",
    "STUDYID": "ONCOLOGY-001",
    "AVISIT": "Visit 3",
    "AVISITN": 3,
    "ADY": 114,
    "TRLOC": "liver",
    "TRGRPID": "T03.1",
    "TRLNKID": "T03.1",
    "TRTESTCD": "LDIAM",
    "TRTEST": "Longest Diameter",
    "TRORRES": "1.5",
    "TRORRESU": "cm",
    "TRSTRESN": 1.4818,
    "TRSTRESU": "cm"
  },
  {
    "USUBJID": "001-033",
    "ARM": "Drug B 100 mg BID",
    "ARMCD": "B100BID",
    "ACTARM": "Drug B 100 mg BID",
    "ACTARMCD": "B100BID",
    "TRT01P": "Drug B 100 mg BID",
    "TRT01A": "Drug B 100 mg BID",
    "RANDDT": "2024-06-06",
    "TRTSDT": "2024-06-06",
    "TRTENDT": "2025-05-18",
    "STUDYID": "ONCOLOGY-001",
    "AVISIT": "Visit 3",
    "AVISITN": 3,
    "ADY": 114,
    "TRLOC": "liver",
    "TRGRPID": "T03.2",
    "TRLNKID": "T03.2",
    "TRTESTCD": "LDIAM",
    "TRTEST": "Longest Diameter",
    "TRORRES": "1.4",
    "TRORRESU": "cm",
    "TRSTRESN": 1.3678,
    "TRSTRESU": "cm"
  },
  {
    "USUBJID": "001-033",
    "ARM": "Drug B 100 mg BID",
    "ARMCD": "B100BID",
    "ACTARM": "Drug B 100 mg BID",
    "ACTARMCD": "B100BID",
    "TRT01P": "Drug B 100 mg BID",
    "TRT01A": "Drug B 100 mg BID",
    "RANDDT": "2024-06-06",
    "TRTSDT": "2024-06-06",
    "TRTENDT": "2025-05-18",
    "STUDYID": "ONCOLOGY-001",
    "AVISIT": "Visit 3",
    "AVISITN": 3,
    "ADY": 114,
    "TRLOC": "liver",
    "TRGRPID": "T04",
    "TRLNKID": "T04",
    "TRTESTCD": "LDIAM",
    "TRTEST": "Longest Diameter",
    "TRORRES": "2.2",
    "TRORRESU": "cm",
    "TRSTRESN": 2.1657,
    "TRSTRESU": "cm"
  },
  {
    "USUBJID": "001-033",
    "ARM": "Drug B 100 mg BID",
    "ARMCD": "B100BID",
    "ACTARM": "Drug B 100 mg BID",
    "ACTARMCD": "B100BID",
    "TRT01P": "Drug B 100 mg BID",
    "TRT01A": "Drug B 100 mg BID",
    "RANDDT": "2024-06-06",
    "TRTSDT": "2024-06-06",
    "TRTENDT": "2025-05-18",
    "STUDYID": "ONCOLOGY-001",
    "AVISIT": "Visit 3",
    "AVISITN": 3,
    "ADY": 114,
    "TRLOC": "lung",
    "TRGRPID": "T06",
    "TRLNKID": "T06",
    "TRTESTCD": "LDIAM",
    "TRTEST": "Longest Diameter",
    "TRORRES": "3.3",
    "TRORRESU": "cm",
    "TRSTRESN": 3.3055,
    "TRSTRESU": "cm"
  },
  {
    "USUBJID": "001-033",
    "ARM": "Drug B 100 mg BID",
    "ARMCD": "B100BID",
    "ACTARM": "Drug B 100 mg BID",
    "ACTARMCD": "B100BID",
    "TRT01P": "Drug B 100 mg BID",
    "TRT01A": "Drug B 100 mg BID",
    "RANDDT": "2024-06-06",
    "TRTSDT": "2024-06-06",
    "TRTENDT": "2025-05-18",
    "STUDYID": "ONCOLOGY-001",
    "AVISIT": "Visit 3",
    "AVISITN": 3,
    "ADY": 114,
    "TRLOC": "lung",
    "TRGRPID": "T07",
    "TRLNKID": "T07",
    "TRTESTCD": "LDIAM",
    "TRTEST": "Longest Diameter",
    "TRORRES": "2.3",
    "TRORRESU": "cm",
    "TRSTRESN": 2.2796,
    "TRSTRESU": "cm"
  },
  {
    "USUBJID": "001-033",
    "ARM": "Drug B 100 mg BID",
    "ARMCD": "B100BID",
    "ACTARM": "Drug B 100 mg BID",
    "ACTARMCD": "B100BID",
    "TRT01P": "Drug B 100 mg BID",
    "TRT01A": "Drug B 100 mg BID",
    "RANDDT": "2024-06-06",
    "TRTSDT": "2024-06-06",
    "TRTENDT": "2025-05-18",
    "STUDYID": "ONCOLOGY-001",
    "AVISIT": "Visit 3",
    "AVISITN": 3,
    "ADY": 114,
    "TRLOC": "lung",
    "TRGRPID": "T08",
    "TRLNKID": "T08",
    "TRTESTCD": "LDIAM",
    "TRTEST": "Longest Diameter",
    "TRORRES": "1.5",
    "TRORRESU": "cm",
    "TRSTRESN": 1.4818,
    "TRSTRESU": "cm"
  },
  {
    "USUBJID": "001-034",
    "ARM": "Drug A 200 mg QD",
    "ARMCD": "A200QD",
    "ACTARM": "Drug A 200 mg QD",
    "ACTARMCD": "A200QD",
    "TRT01P": "Drug A 200 mg QD",
    "TRT01A": "Drug A 200 mg QD",
    "RANDDT": "2024-04-20",
    "TRTSDT": "2024-04-20",
    "TRTENDT": "2024-10-05",
    "STUDYID": "ONCOLOGY-001",
    "AVISIT": "Visit 1",
    "AVISITN": 1,
    "ADY": 0,
    "TRLOC": "brain",
    "TRGRPID": "T10",
    "TRLNKID": "T10",
    "TRTESTCD": "LDIAM",
    "TRTEST": "Longest Diameter",
    "TRORRES": "1.4",
    "TRORRESU": "cm",
    "TRSTRESN": 1.4471,
    "TRSTRESU": "cm"
  },
  {
    "USUBJID": "001-034",
    "ARM": "Drug A 200 mg QD",
    "ARMCD": "A200QD",
    "ACTARM": "Drug A 200 mg QD",
    "ACTARMCD": "A200QD",
    "TRT01P": "Drug A 200 mg QD",
    "TRT01A": "Drug A 200 mg QD",
    "RANDDT": "2024-04-20",
    "TRTSDT": "2024-04-20",
    "TRTENDT": "2024-10-05",
    "STUDYID": "ONCOLOGY-001",
    "AVISIT": "Visit 1",
    "AVISITN": 1,
    "ADY": 0,
    "TRLOC": "kidney",
    "TRGRPID": "T20",
    "TRLNKID": "T20",
    "TRTESTCD": "LDIAM",
    "TRTEST": "Longest Diameter",
    "TRORRES": "2.7",
    "TRORRESU": "cm",
    "TRSTRESN": 2.6531,
    "TRSTRESU": "cm"
  },
  {
    "USUBJID": "001-034",
    "ARM": "Drug A 200 mg QD",
    "ARMCD": "A200QD",
    "ACTARM": "Drug A 200 mg QD",
    "ACTARMCD": "A200QD",
    "TRT01P": "Drug A 200 mg QD",
    "TRT01A": "Drug A 200 mg QD",
    "RANDDT": "2024-04-20",
    "TRTSDT": "2024-04-20",
    "TRTENDT": "2024-10-05",
    "STUDYID": "ONCOLOGY-001",
    "AVISIT": "Visit 1",
    "AVISITN": 1,
    "ADY": 0,
    "TRLOC": "kidney",
    "TRGRPID": "T21",
    "TRLNKID": "T21",
    "TRTESTCD": "LDIAM",
    "TRTEST": "Longest Diameter",
    "TRORRES": "1.9",
    "TRORRESU": "cm",
    "TRSTRESN": 1.9295,
    "TRSTRESU": "cm"
  },
  {
    "USUBJID": "001-034",
    "ARM": "Drug A 200 mg QD",
    "ARMCD": "A200QD",
    "ACTARM": "Drug A 200 mg QD",
    "ACTARMCD": "A200QD",
    "TRT01P": "Drug A 200 mg QD",
    "TRT01A": "Drug A 200 mg QD",
    "RANDDT": "2024-04-20",
    "TRTSDT": "2024-04-20",
    "TRTENDT": "2024-10-05",
    "STUDYID": "ONCOLOGY-001",
    "AVISIT": "Visit 1",
    "AVISITN": 1,
    "ADY": 0,
    "TRLOC": "lung",
    "TRGRPID": "T06",
    "TRLNKID": "T06",
    "TRTESTCD": "LDIAM",
    "TRTEST": "Longest Diameter",
    "TRORRES": "3.0",
    "TRORRESU": "cm",
    "TRSTRESN": 3.0148,
    "TRSTRESU": "cm"
  },
  {
    "USUBJID": "001-034",
    "ARM": "Drug A 200 mg QD",
    "ARMCD": "A200QD",
    "ACTARM": "Drug A 200 mg QD",
    "ACTARMCD": "A200QD",
    "TRT01P": "Drug A 200 mg QD",
    "TRT01A": "Drug A 200 mg QD",
    "RANDDT": "2024-04-20",
    "TRTSDT": "2024-04-20",
    "TRTENDT": "2024-10-05",
    "STUDYID": "ONCOLOGY-001",
    "AVISIT": "Visit 1",
    "AVISITN": 1,
    "ADY": 0,
    "TRLOC": "lung",
    "TRGRPID": "T07",
    "TRLNKID": "T07",
    "TRTESTCD": "LDIAM",
    "TRTEST": "Longest Diameter",
    "TRORRES": "2.2",
    "TRORRESU": "cm",
    "TRSTRESN": 2.1707,
    "TRSTRESU": "cm"
  },
  {
    "USUBJID": "001-034",
    "ARM": "Drug A 200 mg QD",
    "ARMCD": "A200QD",
    "ACTARM": "Drug A 200 mg QD",
    "ACTARMCD": "A200QD",
    "TRT01P": "Drug A 200 mg QD",
    "TRT01A": "Drug A 200 mg QD",
    "RANDDT": "2024-04-20",
    "TRTSDT": "2024-04-20",
    "TRTENDT": "2024-10-05",
    "STUDYID": "ONCOLOGY-001",
    "AVISIT": "Visit 2",
    "AVISITN": 2,
    "ADY": 12,
    "TRLOC": "brain",
    "TRGRPID": "T10",
    "TRLNKID": "T10",
    "TRTESTCD": "LDIAM",
    "TRTEST": "Longest Diameter",
    "TRORRES": "1.2",
    "TRORRESU": "cm",
    "TRSTRESN": 1.1845,
    "TRSTRESU": "cm"
  },
  {
    "USUBJID": "001-034",
    "ARM": "Drug A 200 mg QD",
    "ARMCD": "A200QD",
    "ACTARM": "Drug A 200 mg QD",
    "ACTARMCD": "A200QD",
    "TRT01P": "Drug A 200 mg QD",
    "TRT01A": "Drug A 200 mg QD",
    "RANDDT": "2024-04-20",
    "TRTSDT": "2024-04-20",
    "TRTENDT": "2024-10-05",
    "STUDYID": "ONCOLOGY-001",
    "AVISIT": "Visit 2",
    "AVISITN": 2,
    "ADY": 12,
    "TRLOC": "kidney",
    "TRGRPID": "T20",
    "TRLNKID": "T20",
    "TRTESTCD": "LDIAM",
    "TRTEST": "Longest Diameter",
    "TRORRES": "2.2",
    "TRORRESU": "cm",
    "TRSTRESN": 2.1868,
    "TRSTRESU": "cm"
  },
  {
    "USUBJID": "001-034",
    "ARM": "Drug A 200 mg QD",
    "ARMCD": "A200QD",
    "ACTARM": "Drug A 200 mg QD",
    "ACTARMCD": "A200QD",
    "TRT01P": "Drug A 200 mg QD",
    "TRT01A": "Drug A 200 mg QD",
    "RANDDT": "2024-04-20",
    "TRTSDT": "2024-04-20",
    "TRTENDT": "2024-10-05",
    "STUDYID": "ONCOLOGY-001",
    "AVISIT": "Visit 2",
    "AVISITN": 2,
    "ADY": 12,
    "TRLOC": "kidney",
    "TRGRPID": "T21",
    "TRLNKID": "T21",
    "TRTESTCD": "LDIAM",
    "TRTEST": "Longest Diameter",
    "TRORRES": "1.5",
    "TRORRESU": "cm",
    "TRSTRESN": 1.549,
    "TRSTRESU": "cm"
  },
  {
    "USUBJID": "001-034",
    "ARM": "Drug A 200 mg QD",
    "ARMCD": "A200QD",
    "ACTARM": "Drug A 200 mg QD",
    "ACTARMCD": "A200QD",
    "TRT01P": "Drug A 200 mg QD",
    "TRT01A": "Drug A 200 mg QD",
    "RANDDT": "2024-04-20",
    "TRTSDT": "2024-04-20",
    "TRTENDT": "2024-10-05",
    "STUDYID": "ONCOLOGY-001",
    "AVISIT": "Visit 2",
    "AVISITN": 2,
    "ADY": 12,
    "TRLOC": "lung",
    "TRGRPID": "T06",
    "TRLNKID": "T06",
    "TRTESTCD": "LDIAM",
    "TRTEST": "Longest Diameter",
    "TRORRES": "2.5",
    "TRORRESU": "cm",
    "TRSTRESN": 2.4602,
    "TRSTRESU": "cm"
  },
  {
    "USUBJID": "001-034",
    "ARM": "Drug A 200 mg QD",
    "ARMCD": "A200QD",
    "ACTARM": "Drug A 200 mg QD",
    "ACTARMCD": "A200QD",
    "TRT01P": "Drug A 200 mg QD",
    "TRT01A": "Drug A 200 mg QD",
    "RANDDT": "2024-04-20",
    "TRTSDT": "2024-04-20",
    "TRTENDT": "2024-10-05",
    "STUDYID": "ONCOLOGY-001",
    "AVISIT": "Visit 2",
    "AVISITN": 2,
    "ADY": 12,
    "TRLOC": "lung",
    "TRGRPID": "T07",
    "TRLNKID": "T07",
    "TRTESTCD": "LDIAM",
    "TRTEST": "Longest Diameter",
    "TRORRES": "1.7",
    "TRORRESU": "cm",
    "TRSTRESN": 1.7312,
    "TRSTRESU": "cm"
  },
  {
    "USUBJID": "001-034",
    "ARM": "Drug A 200 mg QD",
    "ARMCD": "A200QD",
    "ACTARM": "Drug A 200 mg QD",
    "ACTARMCD": "A200QD",
    "TRT01P": "Drug A 200 mg QD",
    "TRT01A": "Drug A 200 mg QD",
    "RANDDT": "2024-04-20",
    "TRTSDT": "2024-04-20",
    "TRTENDT": "2024-10-05",
    "STUDYID": "ONCOLOGY-001",
    "AVISIT": "Visit 3",
    "AVISITN": 3,
    "ADY": 68,
    "TRLOC": "brain",
    "TRGRPID": "T10.1",
    "TRLNKID": "T10.1",
    "TRTESTCD": "LDIAM",
    "TRTEST": "Longest Diameter",
    "TRORRES": "0.5",
    "TRORRESU": "cm",
    "TRSTRESN": 0.4531,
    "TRSTRESU": "cm"
  },
  {
    "USUBJID": "001-034",
    "ARM": "Drug A 200 mg QD",
    "ARMCD": "A200QD",
    "ACTARM": "Drug A 200 mg QD",
    "ACTARMCD": "A200QD",
    "TRT01P": "Drug A 200 mg QD",
    "TRT01A": "Drug A 200 mg QD",
    "RANDDT": "2024-04-20",
    "TRTSDT": "2024-04-20",
    "TRTENDT": "2024-10-05",
    "STUDYID": "ONCOLOGY-001",
    "AVISIT": "Visit 3",
    "AVISITN": 3,
    "ADY": 68,
    "TRLOC": "brain",
    "TRGRPID": "T10.2",
    "TRLNKID": "T10.2",
    "TRTESTCD": "LDIAM",
    "TRTEST": "Longest Diameter",
    "TRORRES": "0.4",
    "TRORRESU": "cm",
    "TRSTRESN": 0.3884,
    "TRSTRESU": "cm"
  },
  {
    "USUBJID": "001-034",
    "ARM": "Drug A 200 mg QD",
    "ARMCD": "A200QD",
    "ACTARM": "Drug A 200 mg QD",
    "ACTARMCD": "A200QD",
    "TRT01P": "Drug A 200 mg QD",
    "TRT01A": "Drug A 200 mg QD",
    "RANDDT": "2024-04-20",
    "TRTSDT": "2024-04-20",
    "TRTENDT": "2024-10-05",
    "STUDYID": "ONCOLOGY-001",
    "AVISIT": "Visit 3",
    "AVISITN": 3,
    "ADY": 68,
    "TRLOC": "kidney",
    "TRGRPID": "T20",
    "TRLNKID": "T20",
    "TRTESTCD": "LDIAM",
    "TRTEST": "Longest Diameter",
    "TRORRES": "1.7",
    "TRORRESU": "cm",
    "TRSTRESN": 1.6829,
    "TRSTRESU": "cm"
  },
  {
    "USUBJID": "001-034",
    "ARM": "Drug A 200 mg QD",
    "ARMCD": "A200QD",
    "ACTARM": "Drug A 200 mg QD",
    "ACTARMCD": "A200QD",
    "TRT01P": "Drug A 200 mg QD",
    "TRT01A": "Drug A 200 mg QD",
    "RANDDT": "2024-04-20",
    "TRTSDT": "2024-04-20",
    "TRTENDT": "2024-10-05",
    "STUDYID": "ONCOLOGY-001",
    "AVISIT": "Visit 3",
    "AVISITN": 3,
    "ADY": 68,
    "TRLOC": "kidney",
    "TRGRPID": "T21",
    "TRLNKID": "T21",
    "TRTESTCD": "LDIAM",
    "TRTEST": "Longest Diameter",
    "TRORRES": "1.2",
    "TRORRESU": "cm",
    "TRSTRESN": 1.1651,
    "TRSTRESU": "cm"
  },
  {
    "USUBJID": "001-034",
    "ARM": "Drug A 200 mg QD",
    "ARMCD": "A200QD",
    "ACTARM": "Drug A 200 mg QD",
    "ACTARMCD": "A200QD",
    "TRT01P": "Drug A 200 mg QD",
    "TRT01A": "Drug A 200 mg QD",
    "RANDDT": "2024-04-20",
    "TRTSDT": "2024-04-20",
    "TRTENDT": "2024-10-05",
    "STUDYID": "ONCOLOGY-001",
    "AVISIT": "Visit 3",
    "AVISITN": 3,
    "ADY": 68,
    "TRLOC": "lung",
    "TRGRPID": "T06",
    "TRLNKID": "T06",
    "TRTESTCD": "LDIAM",
    "TRTEST": "Longest Diameter",
    "TRORRES": "1.9",
    "TRORRESU": "cm",
    "TRSTRESN": 1.8771,
    "TRSTRESU": "cm"
  },
  {
    "USUBJID": "001-034",
    "ARM": "Drug A 200 mg QD",
    "ARMCD": "A200QD",
    "ACTARM": "Drug A 200 mg QD",
    "ACTARMCD": "A200QD",
    "TRT01P": "Drug A 200 mg QD",
    "TRT01A": "Drug A 200 mg QD",
    "RANDDT": "2024-04-20",
    "TRTSDT": "2024-04-20",
    "TRTENDT": "2024-10-05",
    "STUDYID": "ONCOLOGY-001",
    "AVISIT": "Visit 3",
    "AVISITN": 3,
    "ADY": 68,
    "TRLOC": "lung",
    "TRGRPID": "T07",
    "TRLNKID": "T07",
    "TRTESTCD": "LDIAM",
    "TRTEST": "Longest Diameter",
    "TRORRES": "1.3",
    "TRORRESU": "cm",
    "TRSTRESN": 1.2946,
    "TRSTRESU": "cm"
  },
  {
    "USUBJID": "001-043",
    "ARM": "Placebo",
    "ARMCD": "PBO",
    "ACTARM": "Placebo",
    "ACTARMCD": "PBO",
    "TRT01P": "Placebo",
    "TRT01A": "Placebo",
    "RANDDT": "2024-05-04",
    "TRTSDT": "2024-05-04",
    "TRTENDT": "2025-04-28",
    "STUDYID": "ONCOLOGY-001",
    "AVISIT": "Visit 1",
    "AVISITN": 1,
    "ADY": 0,
    "TRLOC": "liver",
    "TRGRPID": "T01",
    "TRLNKID": "T01",
    "TRTESTCD": "LDIAM",
    "TRTEST": "Longest Diameter",
    "TRORRES": "3.6",
    "TRORRESU": "cm",
    "TRSTRESN": 3.6462,
    "TRSTRESU": "cm"
  },
  {
    "USUBJID": "001-043",
    "ARM": "Placebo",
    "ARMCD": "PBO",
    "ACTARM": "Placebo",
    "ACTARMCD": "PBO",
    "TRT01P": "Placebo",
    "TRT01A": "Placebo",
    "RANDDT": "2024-05-04",
    "TRTSDT": "2024-05-04",
    "TRTENDT": "2025-04-28",
    "STUDYID": "ONCOLOGY-001",
    "AVISIT": "Visit 1",
    "AVISITN": 1,
    "ADY": 0,
    "TRLOC": "liver",
    "TRGRPID": "T02",
    "TRLNKID": "T02",
    "TRTESTCD": "LDIAM",
    "TRTEST": "Longest Diameter",
    "TRORRES": "2.9",
    "TRORRESU": "cm",
    "TRSTRESN": 2.917,
    "TRSTRESU": "cm"
  },
  {
    "USUBJID": "001-043",
    "ARM": "Placebo",
    "ARMCD": "PBO",
    "ACTARM": "Placebo",
    "ACTARMCD": "PBO",
    "TRT01P": "Placebo",
    "TRT01A": "Placebo",
    "RANDDT": "2024-05-04",
    "TRTSDT": "2024-05-04",
    "TRTENDT": "2025-04-28",
    "STUDYID": "ONCOLOGY-001",
    "AVISIT": "Visit 1",
    "AVISITN": 1,
    "ADY": 0,
    "TRLOC": "liver",
    "TRGRPID": "T03",
    "TRLNKID": "T03",
    "TRTESTCD": "LDIAM",
    "TRTEST": "Longest Diameter",
    "TRORRES": "2.2",
    "TRORRESU": "cm",
    "TRSTRESN": 2.1877,
    "TRSTRESU": "cm"
  },
  {
    "USUBJID": "001-043",
    "ARM": "Placebo",
    "ARMCD": "PBO",
    "ACTARM": "Placebo",
    "ACTARMCD": "PBO",
    "TRT01P": "Placebo",
    "TRT01A": "Placebo",
    "RANDDT": "2024-05-04",
    "TRTSDT": "2024-05-04",
    "TRTENDT": "2025-04-28",
    "STUDYID": "ONCOLOGY-001",
    "AVISIT": "Visit 2",
    "AVISITN": 2,
    "ADY": 46,
    "TRLOC": "liver",
    "TRGRPID": "T01",
    "TRLNKID": "T01",
    "TRTESTCD": "LDIAM",
    "TRTEST": "Longest Diameter",
    "TRORRES": "4.3",
    "TRORRESU": "cm",
    "TRSTRESN": 4.3313,
    "TRSTRESU": "cm"
  },
  {
    "USUBJID": "001-043",
    "ARM": "Placebo",
    "ARMCD": "PBO",
    "ACTARM": "Placebo",
    "ACTARMCD": "PBO",
    "TRT01P": "Placebo",
    "TRT01A": "Placebo",
    "RANDDT": "2024-05-04",
    "TRTSDT": "2024-05-04",
    "TRTENDT": "2025-04-28",
    "STUDYID": "ONCOLOGY-001",
    "AVISIT": "Visit 2",
    "AVISITN": 2,
    "ADY": 46,
    "TRLOC": "liver",
    "TRGRPID": "T02",
    "TRLNKID": "T02",
    "TRTESTCD": "LDIAM",
    "TRTEST": "Longest Diameter",
    "TRORRES": "3.4",
    "TRORRESU": "cm",
    "TRSTRESN": 3.4194,
    "TRSTRESU": "cm"
  },
  {
    "USUBJID": "001-043",
    "ARM": "Placebo",
    "ARMCD": "PBO",
    "ACTARM": "Placebo",
    "ACTARMCD": "PBO",
    "TRT01P": "Placebo",
    "TRT01A": "Placebo",
    "RANDDT": "2024-05-04",
    "TRTSDT": "2024-05-04",
    "TRTENDT": "2025-04-28",
    "STUDYID": "ONCOLOGY-001",
    "AVISIT": "Visit 2",
    "AVISITN": 2,
    "ADY": 46,
    "TRLOC": "liver",
    "TRGRPID": "T03",
    "TRLNKID": "T03",
    "TRTESTCD": "LDIAM",
    "TRTEST": "Longest Diameter",
    "TRORRES": "2.6",
    "TRORRESU": "cm",
    "TRSTRESN": 2.6216,
    "TRSTRESU": "cm"
  },
  {
    "USUBJID": "001-043",
    "ARM": "Placebo",
    "ARMCD": "PBO",
    "ACTARM": "Placebo",
    "ACTARMCD": "PBO",
    "TRT01P": "Placebo",
    "TRT01A": "Placebo",
    "RANDDT": "2024-05-04",
    "TRTSDT": "2024-05-04",
    "TRTENDT": "2025-04-28",
    "STUDYID": "ONCOLOGY-001",
    "AVISIT": "Visit 3",
    "AVISITN": 3,
    "ADY": 90,
    "TRLOC": "liver",
    "TRGRPID": "T01",
    "TRLNKID": "T01",
    "TRTESTCD": "LDIAM",
    "TRTEST": "Longest Diameter",
    "TRORRES": "NaN",
    "TRORRESU": "cm",
    "TRSTRESN": null,
    "TRSTRESU": "cm"
  },
  {
    "USUBJID": "001-043",
    "ARM": "Placebo",
    "ARMCD": "PBO",
    "ACTARM": "Placebo",
    "ACTARMCD": "PBO",
    "TRT01P": "Placebo",
    "TRT01A": "Placebo",
    "RANDDT": "2024-05-04",
    "TRTSDT": "2024-05-04",
    "TRTENDT": "2025-04-28",
    "STUDYID": "ONCOLOGY-001",
    "AVISIT": "Visit 3",
    "AVISITN": 3,
    "ADY": 90,
    "TRLOC": "liver",
    "TRGRPID": "T02",
    "TRLNKID": "T02",
    "TRTESTCD": "LDIAM",
    "TRTEST": "Longest Diameter",
    "TRORRES": "NaN",
    "TRORRESU": "cm",
    "TRSTRESN": null,
    "TRSTRESU": "cm"
  },
  {
    "USUBJID": "001-043",
    "ARM": "Placebo",
    "ARMCD": "PBO",
    "ACTARM": "Placebo",
    "ACTARMCD": "PBO",
    "TRT01P": "Placebo",
    "TRT01A": "Placebo",
    "RANDDT": "2024-05-04",
    "TRTSDT": "2024-05-04",
    "TRTENDT": "2025-04-28",
    "STUDYID": "ONCOLOGY-001",
    "AVISIT": "Visit 3",
    "AVISITN": 3,
    "ADY": 90,
    "TRLOC": "liver",
    "TRGRPID": "T03.1",
    "TRLNKID": "T03.1",
    "TRTESTCD": "LDIAM",
    "TRTEST": "Longest Diameter",
    "TRORRES": "NaN",
    "TRORRESU": "cm",
    "TRSTRESN": null,
    "TRSTRESU": "cm"
  },
  {
    "USUBJID": "001-043",
    "ARM": "Placebo",
    "ARMCD": "PBO",
    "ACTARM": "Placebo",
    "ACTARMCD": "PBO",
    "TRT01P": "Placebo",
    "TRT01A": "Placebo",
    "RANDDT": "2024-05-04",
    "TRTSDT": "2024-05-04",
    "TRTENDT": "2025-04-28",
    "STUDYID": "ONCOLOGY-001",
    "AVISIT": "Visit 3",
    "AVISITN": 3,
    "ADY": 90,
    "TRLOC": "liver",
    "TRGRPID": "T03.2",
    "TRLNKID": "T03.2",
    "TRTESTCD": "LDIAM",
    "TRTEST": "Longest Diameter",
    "TRORRES": "NaN",
    "TRORRESU": "cm",
    "TRSTRESN": null,
    "TRSTRESU": "cm"
  },
  {
    "USUBJID": "001-043",
    "ARM": "Placebo",
    "ARMCD": "PBO",
    "ACTARM": "Placebo",
    "ACTARMCD": "PBO",
    "TRT01P": "Placebo",
    "TRT01A": "Placebo",
    "RANDDT": "2024-05-04",
    "TRTSDT": "2024-05-04",
    "TRTENDT": "2025-04-28",
    "STUDYID": "ONCOLOGY-001",
    "AVISIT": "Visit 4",
    "AVISITN": 4,
    "ADY": 144,
    "TRLOC": "liver",
    "TRGRPID": "T01",
    "TRLNKID": "T01",
    "TRTESTCD": "LDIAM",
    "TRTEST": "Longest Diameter",
    "TRORRES": "3.1",
    "TRORRESU": "cm",
    "TRSTRESN": 3.0836,
    "TRSTRESU": "cm"
  },
  {
    "USUBJID": "001-043",
    "ARM": "Placebo",
    "ARMCD": "PBO",
    "ACTARM": "Placebo",
    "ACTARMCD": "PBO",
    "TRT01P": "Placebo",
    "TRT01A": "Placebo",
    "RANDDT": "2024-05-04",
    "TRTSDT": "2024-05-04",
    "TRTENDT": "2025-04-28",
    "STUDYID": "ONCOLOGY-001",
    "AVISIT": "Visit 4",
    "AVISITN": 4,
    "ADY": 144,
    "TRLOC": "liver",
    "TRGRPID": "T02",
    "TRLNKID": "T02",
    "TRTESTCD": "LDIAM",
    "TRTEST": "Longest Diameter",
    "TRORRES": "2.6",
    "TRORRESU": "cm",
    "TRSTRESN": 2.5696,
    "TRSTRESU": "cm"
  },
  {
    "USUBJID": "001-043",
    "ARM": "Placebo",
    "ARMCD": "PBO",
    "ACTARM": "Placebo",
    "ACTARMCD": "PBO",
    "TRT01P": "Placebo",
    "TRT01A": "Placebo",
    "RANDDT": "2024-05-04",
    "TRTSDT": "2024-05-04",
    "TRTENDT": "2025-04-28",
    "STUDYID": "ONCOLOGY-001",
    "AVISIT": "Visit 4",
    "AVISITN": 4,
    "ADY": 144,
    "TRLOC": "liver",
    "TRGRPID": "T03.1",
    "TRLNKID": "T03.1",
    "TRTESTCD": "LDIAM",
    "TRTEST": "Longest Diameter",
    "TRORRES": "1.1",
    "TRORRESU": "cm",
    "TRSTRESN": 1.1013,
    "TRSTRESU": "cm"
  },
  {
    "USUBJID": "001-043",
    "ARM": "Placebo",
    "ARMCD": "PBO",
    "ACTARM": "Placebo",
    "ACTARMCD": "PBO",
    "TRT01P": "Placebo",
    "TRT01A": "Placebo",
    "RANDDT": "2024-05-04",
    "TRTSDT": "2024-05-04",
    "TRTENDT": "2025-04-28",
    "STUDYID": "ONCOLOGY-001",
    "AVISIT": "Visit 4",
    "AVISITN": 4,
    "ADY": 144,
    "TRLOC": "liver",
    "TRGRPID": "T03.2",
    "TRLNKID": "T03.2",
    "TRTESTCD": "LDIAM",
    "TRTEST": "Longest Diameter",
    "TRORRES": "1.0",
    "TRORRESU": "cm",
    "TRSTRESN": 0.9544,
    "TRSTRESU": "cm"
  },
  {
    "USUBJID": "001-049",
    "ARM": "Placebo",
    "ARMCD": "PBO",
    "ACTARM": "Placebo",
    "ACTARMCD": "PBO",
    "TRT01P": "Placebo",
    "TRT01A": "Placebo",
    "RANDDT": "2024-02-24",
    "TRTSDT": "2024-02-24",
    "TRTENDT": "2024-08-20",
    "STUDYID": "ONCOLOGY-001",
    "AVISIT": "Visit 1",
    "AVISITN": 1,
    "ADY": 0,
    "TRLOC": "liver",
    "TRGRPID": "T01",
    "TRLNKID": "T01",
    "TRTESTCD": "LDIAM",
    "TRTEST": "Longest Diameter",
    "TRORRES": "4.1",
    "TRORRESU": "cm",
    "TRSTRESN": 4.1277,
    "TRSTRESU": "cm"
  },
  {
    "USUBJID": "001-049",
    "ARM": "Placebo",
    "ARMCD": "PBO",
    "ACTARM": "Placebo",
    "ACTARMCD": "PBO",
    "TRT01P": "Placebo",
    "TRT01A": "Placebo",
    "RANDDT": "2024-02-24",
    "TRTSDT": "2024-02-24",
    "TRTENDT": "2024-08-20",
    "STUDYID": "ONCOLOGY-001",
    "AVISIT": "Visit 1",
    "AVISITN": 1,
    "ADY": 0,
    "TRLOC": "liver",
    "TRGRPID": "T02",
    "TRLNKID": "T02",
    "TRTESTCD": "LDIAM",
    "TRTEST": "Longest Diameter",
    "TRORRES": "3.3",
    "TRORRESU": "cm",
    "TRSTRESN": 3.3021,
    "TRSTRESU": "cm"
  },
  {
    "USUBJID": "001-049",
    "ARM": "Placebo",
    "ARMCD": "PBO",
    "ACTARM": "Placebo",
    "ACTARMCD": "PBO",
    "TRT01P": "Placebo",
    "TRT01A": "Placebo",
    "RANDDT": "2024-02-24",
    "TRTSDT": "2024-02-24",
    "TRTENDT": "2024-08-20",
    "STUDYID": "ONCOLOGY-001",
    "AVISIT": "Visit 1",
    "AVISITN": 1,
    "ADY": 0,
    "TRLOC": "liver",
    "TRGRPID": "T03",
    "TRLNKID": "T03",
    "TRTESTCD": "LDIAM",
    "TRTEST": "Longest Diameter",
    "TRORRES": "2.5",
    "TRORRESU": "cm",
    "TRSTRESN": 2.4766,
    "TRSTRESU": "cm"
  },
  {
    "USUBJID": "001-049",
    "ARM": "Placebo",
    "ARMCD": "PBO",
    "ACTARM": "Placebo",
    "ACTARMCD": "PBO",
    "TRT01P": "Placebo",
    "TRT01A": "Placebo",
    "RANDDT": "2024-02-24",
    "TRTSDT": "2024-02-24",
    "TRTENDT": "2024-08-20",
    "STUDYID": "ONCOLOGY-001",
    "AVISIT": "Visit 2",
    "AVISITN": 2,
    "ADY": 55,
    "TRLOC": "liver",
    "TRGRPID": "T01",
    "TRLNKID": "T01",
    "TRTESTCD": "LDIAM",
    "TRTEST": "Longest Diameter",
    "TRORRES": "4.9",
    "TRORRESU": "cm",
    "TRSTRESN": 4.9258,
    "TRSTRESU": "cm"
  },
  {
    "USUBJID": "001-049",
    "ARM": "Placebo",
    "ARMCD": "PBO",
    "ACTARM": "Placebo",
    "ACTARMCD": "PBO",
    "TRT01P": "Placebo",
    "TRT01A": "Placebo",
    "RANDDT": "2024-02-24",
    "TRTSDT": "2024-02-24",
    "TRTENDT": "2024-08-20",
    "STUDYID": "ONCOLOGY-001",
    "AVISIT": "Visit 2",
    "AVISITN": 2,
    "ADY": 55,
    "TRLOC": "liver",
    "TRGRPID": "T02",
    "TRLNKID": "T02",
    "TRTESTCD": "LDIAM",
    "TRTEST": "Longest Diameter",
    "TRORRES": "3.9",
    "TRORRESU": "cm",
    "TRSTRESN": 3.8888,
    "TRSTRESU": "cm"
  },
  {
    "USUBJID": "001-049",
    "ARM": "Placebo",
    "ARMCD": "PBO",
    "ACTARM": "Placebo",
    "ACTARMCD": "PBO",
    "TRT01P": "Placebo",
    "TRT01A": "Placebo",
    "RANDDT": "2024-02-24",
    "TRTSDT": "2024-02-24",
    "TRTENDT": "2024-08-20",
    "STUDYID": "ONCOLOGY-001",
    "AVISIT": "Visit 2",
    "AVISITN": 2,
    "ADY": 55,
    "TRLOC": "liver",
    "TRGRPID": "T03",
    "TRLNKID": "T03",
    "TRTESTCD": "LDIAM",
    "TRTEST": "Longest Diameter",
    "TRORRES": "3.0",
    "TRORRESU": "cm",
    "TRSTRESN": 2.9814,
    "TRSTRESU": "cm"
  },
  {
    "USUBJID": "001-049",
    "ARM": "Placebo",
    "ARMCD": "PBO",
    "ACTARM": "Placebo",
    "ACTARMCD": "PBO",
    "TRT01P": "Placebo",
    "TRT01A": "Placebo",
    "RANDDT": "2024-02-24",
    "TRTSDT": "2024-02-24",
    "TRTENDT": "2024-08-20",
    "STUDYID": "ONCOLOGY-001",
    "AVISIT": "Visit 2",
    "AVISITN": 2,
    "ADY": 55,
    "TRLOC": "liver",
    "TRGRPID": "T04",
    "TRLNKID": "T04",
    "TRTESTCD": "LDIAM",
    "TRTEST": "Longest Diameter",
    "TRORRES": "2.3",
    "TRORRESU": "cm",
    "TRSTRESN": 2.3333,
    "TRSTRESU": "cm"
  },
  {
    "USUBJID": "001-049",
    "ARM": "Placebo",
    "ARMCD": "PBO",
    "ACTARM": "Placebo",
    "ACTARMCD": "PBO",
    "TRT01P": "Placebo",
    "TRT01A": "Placebo",
    "RANDDT": "2024-02-24",
    "TRTSDT": "2024-02-24",
    "TRTENDT": "2024-08-20",
    "STUDYID": "ONCOLOGY-001",
    "AVISIT": "Visit 3",
    "AVISITN": 3,
    "ADY": 86,
    "TRLOC": "liver",
    "TRGRPID": "T01",
    "TRLNKID": "T01",
    "TRTESTCD": "LDIAM",
    "TRTEST": "Longest Diameter",
    "TRORRES": "5.5",
    "TRORRESU": "cm",
    "TRSTRESN": 5.4692,
    "TRSTRESU": "cm"
  },
  {
    "USUBJID": "001-049",
    "ARM": "Placebo",
    "ARMCD": "PBO",
    "ACTARM": "Placebo",
    "ACTARMCD": "PBO",
    "TRT01P": "Placebo",
    "TRT01A": "Placebo",
    "RANDDT": "2024-02-24",
    "TRTSDT": "2024-02-24",
    "TRTENDT": "2024-08-20",
    "STUDYID": "ONCOLOGY-001",
    "AVISIT": "Visit 3",
    "AVISITN": 3,
    "ADY": 86,
    "TRLOC": "liver",
    "TRGRPID": "T02",
    "TRLNKID": "T02",
    "TRTESTCD": "LDIAM",
    "TRTEST": "Longest Diameter",
    "TRORRES": "4.4",
    "TRORRESU": "cm",
    "TRSTRESN": 4.3753,
    "TRSTRESU": "cm"
  },
  {
    "USUBJID": "001-049",
    "ARM": "Placebo",
    "ARMCD": "PBO",
    "ACTARM": "Placebo",
    "ACTARMCD": "PBO",
    "TRT01P": "Placebo",
    "TRT01A": "Placebo",
    "RANDDT": "2024-02-24",
    "TRTSDT": "2024-02-24",
    "TRTENDT": "2024-08-20",
    "STUDYID": "ONCOLOGY-001",
    "AVISIT": "Visit 3",
    "AVISITN": 3,
    "ADY": 86,
    "TRLOC": "liver",
    "TRGRPID": "T03.1",
    "TRLNKID": "T03.1",
    "TRTESTCD": "LDIAM",
    "TRTEST": "Longest Diameter",
    "TRORRES": "1.8",
    "TRORRESU": "cm",
    "TRSTRESN": 1.7775,
    "TRSTRESU": "cm"
  },
  {
    "USUBJID": "001-049",
    "ARM": "Placebo",
    "ARMCD": "PBO",
    "ACTARM": "Placebo",
    "ACTARMCD": "PBO",
    "TRT01P": "Placebo",
    "TRT01A": "Placebo",
    "RANDDT": "2024-02-24",
    "TRTSDT": "2024-02-24",
    "TRTENDT": "2024-08-20",
    "STUDYID": "ONCOLOGY-001",
    "AVISIT": "Visit 3",
    "AVISITN": 3,
    "ADY": 86,
    "TRLOC": "liver",
    "TRGRPID": "T03.2",
    "TRLNKID": "T03.2",
    "TRTESTCD": "LDIAM",
    "TRTEST": "Longest Diameter",
    "TRORRES": "1.6",
    "TRORRESU": "cm",
    "TRSTRESN": 1.6407,
    "TRSTRESU": "cm"
  },
  {
    "USUBJID": "001-049",
    "ARM": "Placebo",
    "ARMCD": "PBO",
    "ACTARM": "Placebo",
    "ACTARMCD": "PBO",
    "TRT01P": "Placebo",
    "TRT01A": "Placebo",
    "RANDDT": "2024-02-24",
    "TRTSDT": "2024-02-24",
    "TRTENDT": "2024-08-20",
    "STUDYID": "ONCOLOGY-001",
    "AVISIT": "Visit 3",
    "AVISITN": 3,
    "ADY": 86,
    "TRLOC": "liver",
    "TRGRPID": "T04",
    "TRLNKID": "T04",
    "TRTESTCD": "LDIAM",
    "TRTEST": "Longest Diameter",
    "TRORRES": "2.6",
    "TRORRESU": "cm",
    "TRSTRESN": 2.5978,
    "TRSTRESU": "cm"
  },
  {
    "USUBJID": "001-049",
    "ARM": "Placebo",
    "ARMCD": "PBO",
    "ACTARM": "Placebo",
    "ACTARMCD": "PBO",
    "TRT01P": "Placebo",
    "TRT01A": "Placebo",
    "RANDDT": "2024-02-24",
    "TRTSDT": "2024-02-24",
    "TRTENDT": "2024-08-20",
    "STUDYID": "ONCOLOGY-001",
    "AVISIT": "Visit 4",
    "AVISITN": 4,
    "ADY": 120,
    "TRLOC": "liver",
    "TRGRPID": "T01",
    "TRLNKID": "T01",
    "TRTESTCD": "LDIAM",
    "TRTEST": "Longest Diameter",
    "TRORRES": "6.2",
    "TRORRESU": "cm",
    "TRSTRESN": 6.1985,
    "TRSTRESU": "cm"
  },
  {
    "USUBJID": "001-049",
    "ARM": "Placebo",
    "ARMCD": "PBO",
    "ACTARM": "Placebo",
    "ACTARMCD": "PBO",
    "TRT01P": "Placebo",
    "TRT01A": "Placebo",
    "RANDDT": "2024-02-24",
    "TRTSDT": "2024-02-24",
    "TRTENDT": "2024-08-20",
    "STUDYID": "ONCOLOGY-001",
    "AVISIT": "Visit 4",
    "AVISITN": 4,
    "ADY": 120,
    "TRLOC": "liver",
    "TRGRPID": "T02",
    "TRLNKID": "T02",
    "TRTESTCD": "LDIAM",
    "TRTEST": "Longest Diameter",
    "TRORRES": "5.2",
    "TRORRESU": "cm",
    "TRSTRESN": 5.1654,
    "TRSTRESU": "cm"
  },
  {
    "USUBJID": "001-049",
    "ARM": "Placebo",
    "ARMCD": "PBO",
    "ACTARM": "Placebo",
    "ACTARMCD": "PBO",
    "TRT01P": "Placebo",
    "TRT01A": "Placebo",
    "RANDDT": "2024-02-24",
    "TRTSDT": "2024-02-24",
    "TRTENDT": "2024-08-20",
    "STUDYID": "ONCOLOGY-001",
    "AVISIT": "Visit 4",
    "AVISITN": 4,
    "ADY": 120,
    "TRLOC": "liver",
    "TRGRPID": "T03.1",
    "TRLNKID": "T03.1",
    "TRTESTCD": "LDIAM",
    "TRTEST": "Longest Diameter",
    "TRORRES": "2.2",
    "TRORRESU": "cm",
    "TRSTRESN": 2.2137,
    "TRSTRESU": "cm"
  },
  {
    "USUBJID": "001-049",
    "ARM": "Placebo",
    "ARMCD": "PBO",
    "ACTARM": "Placebo",
    "ACTARMCD": "PBO",
    "TRT01P": "Placebo",
    "TRT01A": "Placebo",
    "RANDDT": "2024-02-24",
    "TRTSDT": "2024-02-24",
    "TRTENDT": "2024-08-20",
    "STUDYID": "ONCOLOGY-001",
    "AVISIT": "Visit 4",
    "AVISITN": 4,
    "ADY": 120,
    "TRLOC": "liver",
    "TRGRPID": "T03.2",
    "TRLNKID": "T03.2",
    "TRTESTCD": "LDIAM",
    "TRTEST": "Longest Diameter",
    "TRORRES": "1.9",
    "TRORRESU": "cm",
    "TRSTRESN": 1.9186,
    "TRSTRESU": "cm"
  },
  {
    "USUBJID": "001-049",
    "ARM": "Placebo",
    "ARMCD": "PBO",
    "ACTARM": "Placebo",
    "ACTARMCD": "PBO",
    "TRT01P": "Placebo",
    "TRT01A": "Placebo",
    "RANDDT": "2024-02-24",
    "TRTSDT": "2024-02-24",
    "TRTENDT": "2024-08-20",
    "STUDYID": "ONCOLOGY-001",
    "AVISIT": "Visit 4",
    "AVISITN": 4,
    "ADY": 120,
    "TRLOC": "liver",
    "TRGRPID": "T04",
    "TRLNKID": "T04",
    "TRTESTCD": "LDIAM",
    "TRTEST": "Longest Diameter",
    "TRORRES": "3.0",
    "TRORRESU": "cm",
    "TRSTRESN": 2.9517,
    "TRSTRESU": "cm"
  },
  {
    "USUBJID": "001-049",
    "ARM": "Placebo",
    "ARMCD": "PBO",
    "ACTARM": "Placebo",
    "ACTARMCD": "PBO",
    "TRT01P": "Placebo",
    "TRT01A": "Placebo",
    "RANDDT": "2024-02-24",
    "TRTSDT": "2024-02-24",
    "TRTENDT": "2024-08-20",
    "STUDYID": "ONCOLOGY-001",
    "AVISIT": "Visit 5",
    "AVISITN": 5,
    "ADY": 174,
    "TRLOC": "liver",
    "TRGRPID": "T01/T02",
    "TRLNKID": "T01/T02",
    "TRTESTCD": "LDIAM",
    "TRTEST": "Longest Diameter",
    "TRORRES": "9.7",
    "TRORRESU": "cm",
    "TRSTRESN": 9.6684,
    "TRSTRESU": "cm"
  },
  {
    "USUBJID": "001-049",
    "ARM": "Placebo",
    "ARMCD": "PBO",
    "ACTARM": "Placebo",
    "ACTARMCD": "PBO",
    "TRT01P": "Placebo",
    "TRT01A": "Placebo",
    "RANDDT": "2024-02-24",
    "TRTSDT": "2024-02-24",
    "TRTENDT": "2024-08-20",
    "STUDYID": "ONCOLOGY-001",
    "AVISIT": "Visit 5",
    "AVISITN": 5,
    "ADY": 174,
    "TRLOC": "liver",
    "TRGRPID": "T03.1",
    "TRLNKID": "T03.1",
    "TRTESTCD": "LDIAM",
    "TRTEST": "Longest Diameter",
    "TRORRES": "2.7",
    "TRORRESU": "cm",
    "TRSTRESN": 2.7394,
    "TRSTRESU": "cm"
  },
  {
    "USUBJID": "001-049",
    "ARM": "Placebo",
    "ARMCD": "PBO",
    "ACTARM": "Placebo",
    "ACTARMCD": "PBO",
    "TRT01P": "Placebo",
    "TRT01A": "Placebo",
    "RANDDT": "2024-02-24",
    "TRTSDT": "2024-02-24",
    "TRTENDT": "2024-08-20",
    "STUDYID": "ONCOLOGY-001",
    "AVISIT": "Visit 5",
    "AVISITN": 5,
    "ADY": 174,
    "TRLOC": "liver",
    "TRGRPID": "T03.2",
    "TRLNKID": "T03.2",
    "TRTESTCD": "LDIAM",
    "TRTEST": "Longest Diameter",
    "TRORRES": "2.4",
    "TRORRESU": "cm",
    "TRSTRESN": 2.4171,
    "TRSTRESU": "cm"
  },
  {
    "USUBJID": "001-049",
    "ARM": "Placebo",
    "ARMCD": "PBO",
    "ACTARM": "Placebo",
    "ACTARMCD": "PBO",
    "TRT01P": "Placebo",
    "TRT01A": "Placebo",
    "RANDDT": "2024-02-24",
    "TRTSDT": "2024-02-24",
    "TRTENDT": "2024-08-20",
    "STUDYID": "ONCOLOGY-001",
    "AVISIT": "Visit 5",
    "AVISITN": 5,
    "ADY": 174,
    "TRLOC": "liver",
    "TRGRPID": "T04",
    "TRLNKID": "T04",
    "TRTESTCD": "LDIAM",
    "TRTEST": "Longest Diameter",
    "TRORRES": "3.4",
    "TRORRESU": "cm",
    "TRSTRESN": 3.3839,
    "TRSTRESU": "cm"
  },
  {
    "USUBJID": "001-049",
    "ARM": "Placebo",
    "ARMCD": "PBO",
    "ACTARM": "Placebo",
    "ACTARMCD": "PBO",
    "TRT01P": "Placebo",
    "TRT01A": "Placebo",
    "RANDDT": "2024-02-24",
    "TRTSDT": "2024-02-24",
    "TRTENDT": "2024-08-20",
    "STUDYID": "ONCOLOGY-001",
    "AVISIT": "Visit 6",
    "AVISITN": 6,
    "ADY": 225,
    "TRLOC": "liver",
    "TRGRPID": "T01/T02",
    "TRLNKID": "T01/T02",
    "TRTESTCD": "LDIAM",
    "TRTEST": "Longest Diameter",
    "TRORRES": "11.6",
    "TRORRESU": "cm",
    "TRSTRESN": 11.621,
    "TRSTRESU": "cm"
  },
  {
    "USUBJID": "001-049",
    "ARM": "Placebo",
    "ARMCD": "PBO",
    "ACTARM": "Placebo",
    "ACTARMCD": "PBO",
    "TRT01P": "Placebo",
    "TRT01A": "Placebo",
    "RANDDT": "2024-02-24",
    "TRTSDT": "2024-02-24",
    "TRTENDT": "2024-08-20",
    "STUDYID": "ONCOLOGY-001",
    "AVISIT": "Visit 6",
    "AVISITN": 6,
    "ADY": 225,
    "TRLOC": "liver",
    "TRGRPID": "T03.1",
    "TRLNKID": "T03.1",
    "TRTESTCD": "LDIAM",
    "TRTEST": "Longest Diameter",
    "TRORRES": "3.4",
    "TRORRESU": "cm",
    "TRSTRESN": 3.3969,
    "TRSTRESU": "cm"
  },
  {
    "USUBJID": "001-049",
    "ARM": "Placebo",
    "ARMCD": "PBO",
    "ACTARM": "Placebo",
    "ACTARMCD": "PBO",
    "TRT01P": "Placebo",
    "TRT01A": "Placebo",
    "RANDDT": "2024-02-24",
    "TRTSDT": "2024-02-24",
    "TRTENDT": "2024-08-20",
    "STUDYID": "ONCOLOGY-001",
    "AVISIT": "Visit 6",
    "AVISITN": 6,
    "ADY": 225,
    "TRLOC": "liver",
    "TRGRPID": "T04",
    "TRLNKID": "T04",
    "TRTESTCD": "LDIAM",
    "TRTEST": "Longest Diameter",
    "TRORRES": "4.1",
    "TRORRESU": "cm",
    "TRSTRESN": 4.112,
    "TRSTRESU": "cm"
  },
  {
    "USUBJID": "001-049",
    "ARM": "Placebo",
    "ARMCD": "PBO",
    "ACTARM": "Placebo",
    "ACTARMCD": "PBO",
    "TRT01P": "Placebo",
    "TRT01A": "Placebo",
    "RANDDT": "2024-02-24",
    "TRTSDT": "2024-02-24",
    "TRTENDT": "2024-08-20",
    "STUDYID": "ONCOLOGY-001",
    "AVISIT": "Visit 7",
    "AVISITN": 7,
    "ADY": 255,
    "TRLOC": "liver",
    "TRGRPID": "T01/T02",
    "TRLNKID": "T01/T02",
    "TRTESTCD": "LDIAM",
    "TRTEST": "Longest Diameter",
    "TRORRES": "19.1",
    "TRORRESU": "cm",
    "TRSTRESN": 19.115,
    "TRSTRESU": "cm"
  },
  {
    "USUBJID": "001-049",
    "ARM": "Placebo",
    "ARMCD": "PBO",
    "ACTARM": "Placebo",
    "ACTARMCD": "PBO",
    "TRT01P": "Placebo",
    "TRT01A": "Placebo",
    "RANDDT": "2024-02-24",
    "TRTSDT": "2024-02-24",
    "TRTENDT": "2024-08-20",
    "STUDYID": "ONCOLOGY-001",
    "AVISIT": "Visit 7",
    "AVISITN": 7,
    "ADY": 255,
    "TRLOC": "liver",
    "TRGRPID": "T03.1",
    "TRLNKID": "T03.1",
    "TRTESTCD": "LDIAM",
    "TRTEST": "Longest Diameter",
    "TRORRES": "4.0",
    "TRORRESU": "cm",
    "TRSTRESN": 4.0142,
    "TRSTRESU": "cm"
  },
  {
    "USUBJID": "001-050",
    "ARM": "Drug B 100 mg BID",
    "ARMCD": "B100BID",
    "ACTARM": "Drug B 100 mg BID",
    "ACTARMCD": "B100BID",
    "TRT01P": "Drug B 100 mg BID",
    "TRT01A": "Drug B 100 mg BID",
    "RANDDT": "2024-02-19",
    "TRTSDT": "2024-02-19",
    "TRTENDT": "2024-09-26",
    "STUDYID": "ONCOLOGY-001",
    "AVISIT": "Visit 1",
    "AVISITN": 1,
    "ADY": 0,
    "TRLOC": "liver",
    "TRGRPID": "T01",
    "TRLNKID": "T01",
    "TRTESTCD": "LDIAM",
    "TRTEST": "Longest Diameter",
    "TRORRES": "3.1",
    "TRORRESU": "cm",
    "TRSTRESN": 3.0557,
    "TRSTRESU": "cm"
  },
  {
    "USUBJID": "001-050",
    "ARM": "Drug B 100 mg BID",
    "ARMCD": "B100BID",
    "ACTARM": "Drug B 100 mg BID",
    "ACTARMCD": "B100BID",
    "TRT01P": "Drug B 100 mg BID",
    "TRT01A": "Drug B 100 mg BID",
    "RANDDT": "2024-02-19",
    "TRTSDT": "2024-02-19",
    "TRTENDT": "2024-09-26",
    "STUDYID": "ONCOLOGY-001",
    "AVISIT": "Visit 1",
    "AVISITN": 1,
    "ADY": 0,
    "TRLOC": "liver",
    "TRGRPID": "T02",
    "TRLNKID": "T02",
    "TRTESTCD": "LDIAM",
    "TRTEST": "Longest Diameter",
    "TRORRES": "2.4",
    "TRORRESU": "cm",
    "TRSTRESN": 2.4445,
    "TRSTRESU": "cm"
  },
  {
    "USUBJID": "001-050",
    "ARM": "Drug B 100 mg BID",
    "ARMCD": "B100BID",
    "ACTARM": "Drug B 100 mg BID",
    "ACTARMCD": "B100BID",
    "TRT01P": "Drug B 100 mg BID",
    "TRT01A": "Drug B 100 mg BID",
    "RANDDT": "2024-02-19",
    "TRTSDT": "2024-02-19",
    "TRTENDT": "2024-09-26",
    "STUDYID": "ONCOLOGY-001",
    "AVISIT": "Visit 1",
    "AVISITN": 1,
    "ADY": 0,
    "TRLOC": "liver",
    "TRGRPID": "T03",
    "TRLNKID": "T03",
    "TRTESTCD": "LDIAM",
    "TRTEST": "Longest Diameter",
    "TRORRES": "1.8",
    "TRORRESU": "cm",
    "TRSTRESN": 1.8334,
    "TRSTRESU": "cm"
  },
  {
    "USUBJID": "001-050",
    "ARM": "Drug B 100 mg BID",
    "ARMCD": "B100BID",
    "ACTARM": "Drug B 100 mg BID",
    "ACTARMCD": "B100BID",
    "TRT01P": "Drug B 100 mg BID",
    "TRT01A": "Drug B 100 mg BID",
    "RANDDT": "2024-02-19",
    "TRTSDT": "2024-02-19",
    "TRTENDT": "2024-09-26",
    "STUDYID": "ONCOLOGY-001",
    "AVISIT": "Visit 2",
    "AVISITN": 2,
    "ADY": 39,
    "TRLOC": "liver",
    "TRGRPID": "T01",
    "TRLNKID": "T01",
    "TRTESTCD": "LDIAM",
    "TRTEST": "Longest Diameter",
    "TRORRES": "3.6",
    "TRORRESU": "cm",
    "TRSTRESN": 3.5708,
    "TRSTRESU": "cm"
  },
  {
    "USUBJID": "001-050",
    "ARM": "Drug B 100 mg BID",
    "ARMCD": "B100BID",
    "ACTARM": "Drug B 100 mg BID",
    "ACTARMCD": "B100BID",
    "TRT01P": "Drug B 100 mg BID",
    "TRT01A": "Drug B 100 mg BID",
    "RANDDT": "2024-02-19",
    "TRTSDT": "2024-02-19",
    "TRTENDT": "2024-09-26",
    "STUDYID": "ONCOLOGY-001",
    "AVISIT": "Visit 2",
    "AVISITN": 2,
    "ADY": 39,
    "TRLOC": "liver",
    "TRGRPID": "T02",
    "TRLNKID": "T02",
    "TRTESTCD": "LDIAM",
    "TRTEST": "Longest Diameter",
    "TRORRES": "2.8",
    "TRORRESU": "cm",
    "TRSTRESN": 2.8191,
    "TRSTRESU": "cm"
  },
  {
    "USUBJID": "001-050",
    "ARM": "Drug B 100 mg BID",
    "ARMCD": "B100BID",
    "ACTARM": "Drug B 100 mg BID",
    "ACTARMCD": "B100BID",
    "TRT01P": "Drug B 100 mg BID",
    "TRT01A": "Drug B 100 mg BID",
    "RANDDT": "2024-02-19",
    "TRTSDT": "2024-02-19",
    "TRTENDT": "2024-09-26",
    "STUDYID": "ONCOLOGY-001",
    "AVISIT": "Visit 2",
    "AVISITN": 2,
    "ADY": 39,
    "TRLOC": "liver",
    "TRGRPID": "T03",
    "TRLNKID": "T03",
    "TRTESTCD": "LDIAM",
    "TRTEST": "Longest Diameter",
    "TRORRES": "2.2",
    "TRORRESU": "cm",
    "TRSTRESN": 2.1613,
    "TRSTRESU": "cm"
  },
  {
    "USUBJID": "001-050",
    "ARM": "Drug B 100 mg BID",
    "ARMCD": "B100BID",
    "ACTARM": "Drug B 100 mg BID",
    "ACTARMCD": "B100BID",
    "TRT01P": "Drug B 100 mg BID",
    "TRT01A": "Drug B 100 mg BID",
    "RANDDT": "2024-02-19",
    "TRTSDT": "2024-02-19",
    "TRTENDT": "2024-09-26",
    "STUDYID": "ONCOLOGY-001",
    "AVISIT": "Visit 3",
    "AVISITN": 3,
    "ADY": 76,
    "TRLOC": "liver",
    "TRGRPID": "T01",
    "TRLNKID": "T01",
    "TRTESTCD": "LDIAM",
    "TRTEST": "Longest Diameter",
    "TRORRES": "3.9",
    "TRORRESU": "cm",
    "TRSTRESN": 3.9103,
    "TRSTRESU": "cm"
  },
  {
    "USUBJID": "001-050",
    "ARM": "Drug B 100 mg BID",
    "ARMCD": "B100BID",
    "ACTARM": "Drug B 100 mg BID",
    "ACTARMCD": "B100BID",
    "TRT01P": "Drug B 100 mg BID",
    "TRT01A": "Drug B 100 mg BID",
    "RANDDT": "2024-02-19",
    "TRTSDT": "2024-02-19",
    "TRTENDT": "2024-09-26",
    "STUDYID": "ONCOLOGY-001",
    "AVISIT": "Visit 3",
    "AVISITN": 3,
    "ADY": 76,
    "TRLOC": "liver",
    "TRGRPID": "T02",
    "TRLNKID": "T02",
    "TRTESTCD": "LDIAM",
    "TRTEST": "Longest Diameter",
    "TRORRES": "3.1",
    "TRORRESU": "cm",
    "TRSTRESN": 3.1283,
    "TRSTRESU": "cm"
  },
  {
    "USUBJID": "001-050",
    "ARM": "Drug B 100 mg BID",
    "ARMCD": "B100BID",
    "ACTARM": "Drug B 100 mg BID",
    "ACTARMCD": "B100BID",
    "TRT01P": "Drug B 100 mg BID",
    "TRT01A": "Drug B 100 mg BID",
    "RANDDT": "2024-02-19",
    "TRTSDT": "2024-02-19",
    "TRTENDT": "2024-09-26",
    "STUDYID": "ONCOLOGY-001",
    "AVISIT": "Visit 3",
    "AVISITN": 3,
    "ADY": 76,
    "TRLOC": "liver",
    "TRGRPID": "T03.1",
    "TRLNKID": "T03.1",
    "TRTESTCD": "LDIAM",
    "TRTEST": "Longest Diameter",
    "TRORRES": "1.3",
    "TRORRESU": "cm",
    "TRSTRESN": 1.2709,
    "TRSTRESU": "cm"
  },
  {
    "USUBJID": "001-050",
    "ARM": "Drug B 100 mg BID",
    "ARMCD": "B100BID",
    "ACTARM": "Drug B 100 mg BID",
    "ACTARMCD": "B100BID",
    "TRT01P": "Drug B 100 mg BID",
    "TRT01A": "Drug B 100 mg BID",
    "RANDDT": "2024-02-19",
    "TRTSDT": "2024-02-19",
    "TRTENDT": "2024-09-26",
    "STUDYID": "ONCOLOGY-001",
    "AVISIT": "Visit 3",
    "AVISITN": 3,
    "ADY": 76,
    "TRLOC": "liver",
    "TRGRPID": "T03.2",
    "TRLNKID": "T03.2",
    "TRTESTCD": "LDIAM",
    "TRTEST": "Longest Diameter",
    "TRORRES": "1.2",
    "TRORRESU": "cm",
    "TRSTRESN": 1.1731,
    "TRSTRESU": "cm"
  },
  {
    "USUBJID": "001-050",
    "ARM": "Drug B 100 mg BID",
    "ARMCD": "B100BID",
    "ACTARM": "Drug B 100 mg BID",
    "ACTARMCD": "B100BID",
    "TRT01P": "Drug B 100 mg BID",
    "TRT01A": "Drug B 100 mg BID",
    "RANDDT": "2024-02-19",
    "TRTSDT": "2024-02-19",
    "TRTENDT": "2024-09-26",
    "STUDYID": "ONCOLOGY-001",
    "AVISIT": "Visit 4",
    "AVISITN": 4,
    "ADY": 128,
    "TRLOC": "liver",
    "TRGRPID": "T01",
    "TRLNKID": "T01",
    "TRTESTCD": "LDIAM",
    "TRTEST": "Longest Diameter",
    "TRORRES": "0.0",
    "TRORRESU": "cm",
    "TRSTRESN": 0,
    "TRSTRESU": "cm"
  },
  {
    "USUBJID": "001-050",
    "ARM": "Drug B 100 mg BID",
    "ARMCD": "B100BID",
    "ACTARM": "Drug B 100 mg BID",
    "ACTARMCD": "B100BID",
    "TRT01P": "Drug B 100 mg BID",
    "TRT01A": "Drug B 100 mg BID",
    "RANDDT": "2024-02-19",
    "TRTSDT": "2024-02-19",
    "TRTENDT": "2024-09-26",
    "STUDYID": "ONCOLOGY-001",
    "AVISIT": "Visit 4",
    "AVISITN": 4,
    "ADY": 128,
    "TRLOC": "liver",
    "TRGRPID": "T02",
    "TRLNKID": "T02",
    "TRTESTCD": "LDIAM",
    "TRTEST": "Longest Diameter",
    "TRORRES": "0.0",
    "TRORRESU": "cm",
    "TRSTRESN": 0,
    "TRSTRESU": "cm"
  },
  {
    "USUBJID": "001-050",
    "ARM": "Drug B 100 mg BID",
    "ARMCD": "B100BID",
    "ACTARM": "Drug B 100 mg BID",
    "ACTARMCD": "B100BID",
    "TRT01P": "Drug B 100 mg BID",
    "TRT01A": "Drug B 100 mg BID",
    "RANDDT": "2024-02-19",
    "TRTSDT": "2024-02-19",
    "TRTENDT": "2024-09-26",
    "STUDYID": "ONCOLOGY-001",
    "AVISIT": "Visit 4",
    "AVISITN": 4,
    "ADY": 128,
    "TRLOC": "liver",
    "TRGRPID": "T03.1",
    "TRLNKID": "T03.1",
    "TRTESTCD": "LDIAM",
    "TRTEST": "Longest Diameter",
    "TRORRES": "0.0",
    "TRORRESU": "cm",
    "TRSTRESN": 0,
    "TRSTRESU": "cm"
  },
  {
    "USUBJID": "001-050",
    "ARM": "Drug B 100 mg BID",
    "ARMCD": "B100BID",
    "ACTARM": "Drug B 100 mg BID",
    "ACTARMCD": "B100BID",
    "TRT01P": "Drug B 100 mg BID",
    "TRT01A": "Drug B 100 mg BID",
    "RANDDT": "2024-02-19",
    "TRTSDT": "2024-02-19",
    "TRTENDT": "2024-09-26",
    "STUDYID": "ONCOLOGY-001",
    "AVISIT": "Visit 4",
    "AVISITN": 4,
    "ADY": 128,
    "TRLOC": "liver",
    "TRGRPID": "T03.2",
    "TRLNKID": "T03.2",
    "TRTESTCD": "LDIAM",
    "TRTEST": "Longest Diameter",
    "TRORRES": "0.0",
    "TRORRESU": "cm",
    "TRSTRESN": 0,
    "TRSTRESU": "cm"
  },
  {
    "USUBJID": "001-050",
    "ARM": "Drug B 100 mg BID",
    "ARMCD": "B100BID",
    "ACTARM": "Drug B 100 mg BID",
    "ACTARMCD": "B100BID",
    "TRT01P": "Drug B 100 mg BID",
    "TRT01A": "Drug B 100 mg BID",
    "RANDDT": "2024-02-19",
    "TRTSDT": "2024-02-19",
    "TRTENDT": "2024-09-26",
    "STUDYID": "ONCOLOGY-001",
    "AVISIT": "Visit 5",
    "AVISITN": 5,
    "ADY": 179,
    "TRLOC": "liver",
    "TRGRPID": "T01/T02",
    "TRLNKID": "T01/T02",
    "TRTESTCD": "LDIAM",
    "TRTEST": "Longest Diameter",
    "TRORRES": "0.0",
    "TRORRESU": "cm",
    "TRSTRESN": 0,
    "TRSTRESU": "cm"
  },
  {
    "USUBJID": "001-050",
    "ARM": "Drug B 100 mg BID",
    "ARMCD": "B100BID",
    "ACTARM": "Drug B 100 mg BID",
    "ACTARMCD": "B100BID",
    "TRT01P": "Drug B 100 mg BID",
    "TRT01A": "Drug B 100 mg BID",
    "RANDDT": "2024-02-19",
    "TRTSDT": "2024-02-19",
    "TRTENDT": "2024-09-26",
    "STUDYID": "ONCOLOGY-001",
    "AVISIT": "Visit 5",
    "AVISITN": 5,
    "ADY": 179,
    "TRLOC": "liver",
    "TRGRPID": "T03.1",
    "TRLNKID": "T03.1",
    "TRTESTCD": "LDIAM",
    "TRTEST": "Longest Diameter",
    "TRORRES": "0.0",
    "TRORRESU": "cm",
    "TRSTRESN": 0,
    "TRSTRESU": "cm"
  },
  {
    "USUBJID": "001-050",
    "ARM": "Drug B 100 mg BID",
    "ARMCD": "B100BID",
    "ACTARM": "Drug B 100 mg BID",
    "ACTARMCD": "B100BID",
    "TRT01P": "Drug B 100 mg BID",
    "TRT01A": "Drug B 100 mg BID",
    "RANDDT": "2024-02-19",
    "TRTSDT": "2024-02-19",
    "TRTENDT": "2024-09-26",
    "STUDYID": "ONCOLOGY-001",
    "AVISIT": "Visit 5",
    "AVISITN": 5,
    "ADY": 179,
    "TRLOC": "liver",
    "TRGRPID": "T03.2",
    "TRLNKID": "T03.2",
    "TRTESTCD": "LDIAM",
    "TRTEST": "Longest Diameter",
    "TRORRES": "0.0",
    "TRORRESU": "cm",
    "TRSTRESN": 0,
    "TRSTRESU": "cm"
  },
  {
    "USUBJID": "001-050",
    "ARM": "Drug B 100 mg BID",
    "ARMCD": "B100BID",
    "ACTARM": "Drug B 100 mg BID",
    "ACTARMCD": "B100BID",
    "TRT01P": "Drug B 100 mg BID",
    "TRT01A": "Drug B 100 mg BID",
    "RANDDT": "2024-02-19",
    "TRTSDT": "2024-02-19",
    "TRTENDT": "2024-09-26",
    "STUDYID": "ONCOLOGY-001",
    "AVISIT": "Visit 6",
    "AVISITN": 6,
    "ADY": 206,
    "TRLOC": "liver",
    "TRGRPID": "T01/T02",
    "TRLNKID": "T01/T02",
    "TRTESTCD": "LDIAM",
    "TRTEST": "Longest Diameter",
    "TRORRES": "0.0",
    "TRORRESU": "cm",
    "TRSTRESN": 0,
    "TRSTRESU": "cm"
  },
  {
    "USUBJID": "001-050",
    "ARM": "Drug B 100 mg BID",
    "ARMCD": "B100BID",
    "ACTARM": "Drug B 100 mg BID",
    "ACTARMCD": "B100BID",
    "TRT01P": "Drug B 100 mg BID",
    "TRT01A": "Drug B 100 mg BID",
    "RANDDT": "2024-02-19",
    "TRTSDT": "2024-02-19",
    "TRTENDT": "2024-09-26",
    "STUDYID": "ONCOLOGY-001",
    "AVISIT": "Visit 6",
    "AVISITN": 6,
    "ADY": 206,
    "TRLOC": "liver",
    "TRGRPID": "T03.1",
    "TRLNKID": "T03.1",
    "TRTESTCD": "LDIAM",
    "TRTEST": "Longest Diameter",
    "TRORRES": "0.0",
    "TRORRESU": "cm",
    "TRSTRESN": 0,
    "TRSTRESU": "cm"
  },
  {
    "USUBJID": "001-057",
    "ARM": "Drug A 200 mg QD",
    "ARMCD": "A200QD",
    "ACTARM": "Drug A 200 mg QD",
    "ACTARMCD": "A200QD",
    "TRT01P": "Drug A 200 mg QD",
    "TRT01A": "Drug A 200 mg QD",
    "RANDDT": "2024-05-10",
    "TRTSDT": "2024-05-10",
    "TRTENDT": "2024-09-30",
    "STUDYID": "ONCOLOGY-001",
    "AVISIT": "Visit 1",
    "AVISITN": 1,
    "ADY": 0,
    "TRLOC": "brain",
    "TRGRPID": "T10",
    "TRLNKID": "T10",
    "TRTESTCD": "LDIAM",
    "TRTEST": "Longest Diameter",
    "TRORRES": "1.4",
    "TRORRESU": "cm",
    "TRSTRESN": 1.3986,
    "TRSTRESU": "cm"
  },
  {
    "USUBJID": "001-057",
    "ARM": "Drug A 200 mg QD",
    "ARMCD": "A200QD",
    "ACTARM": "Drug A 200 mg QD",
    "ACTARMCD": "A200QD",
    "TRT01P": "Drug A 200 mg QD",
    "TRT01A": "Drug A 200 mg QD",
    "RANDDT": "2024-05-10",
    "TRTSDT": "2024-05-10",
    "TRTENDT": "2024-09-30",
    "STUDYID": "ONCOLOGY-001",
    "AVISIT": "Visit 2",
    "AVISITN": 2,
    "ADY": 59,
    "TRLOC": "brain",
    "TRGRPID": "T10",
    "TRLNKID": "T10",
    "TRTESTCD": "LDIAM",
    "TRTEST": "Longest Diameter",
    "TRORRES": "1.4",
    "TRORRESU": "cm",
    "TRSTRESN": 1.4179,
    "TRSTRESU": "cm"
  },
  {
    "USUBJID": "001-057",
    "ARM": "Drug A 200 mg QD",
    "ARMCD": "A200QD",
    "ACTARM": "Drug A 200 mg QD",
    "ACTARMCD": "A200QD",
    "TRT01P": "Drug A 200 mg QD",
    "TRT01A": "Drug A 200 mg QD",
    "RANDDT": "2024-05-10",
    "TRTSDT": "2024-05-10",
    "TRTENDT": "2024-09-30",
    "STUDYID": "ONCOLOGY-001",
    "AVISIT": "Visit 5",
    "AVISITN": 5,
    "ADY": 174,
    "TRLOC": "brain",
    "TRGRPID": "T10.1",
    "TRLNKID": "T10.1",
    "TRTESTCD": "LDIAM",
    "TRTEST": "Longest Diameter",
    "TRORRES": "1.0",
    "TRORRESU": "cm",
    "TRSTRESN": 0.9584,
    "TRSTRESU": "cm"
  },
  {
    "USUBJID": "001-057",
    "ARM": "Drug A 200 mg QD",
    "ARMCD": "A200QD",
    "ACTARM": "Drug A 200 mg QD",
    "ACTARMCD": "A200QD",
    "TRT01P": "Drug A 200 mg QD",
    "TRT01A": "Drug A 200 mg QD",
    "RANDDT": "2024-05-10",
    "TRTSDT": "2024-05-10",
    "TRTENDT": "2024-09-30",
    "STUDYID": "ONCOLOGY-001",
    "AVISIT": "Visit 5",
    "AVISITN": 5,
    "ADY": 174,
    "TRLOC": "brain",
    "TRGRPID": "T10.2",
    "TRLNKID": "T10.2",
    "TRTESTCD": "LDIAM",
    "TRTEST": "Longest Diameter",
    "TRORRES": "0.9",
    "TRORRESU": "cm",
    "TRSTRESN": 0.8519,
    "TRSTRESU": "cm"
  },
  {
    "USUBJID": "001-057",
    "ARM": "Drug A 200 mg QD",
    "ARMCD": "A200QD",
    "ACTARM": "Drug A 200 mg QD",
    "ACTARMCD": "A200QD",
    "TRT01P": "Drug A 200 mg QD",
    "TRT01A": "Drug A 200 mg QD",
    "RANDDT": "2024-05-10",
    "TRTSDT": "2024-05-10",
    "TRTENDT": "2024-09-30",
    "STUDYID": "ONCOLOGY-001",
    "AVISIT": "Visit 5",
    "AVISITN": 5,
    "ADY": 174,
    "TRLOC": "brain",
    "TRGRPID": "T11",
    "TRLNKID": "T11",
    "TRTESTCD": "LDIAM",
    "TRTEST": "Longest Diameter",
    "TRORRES": "0.9",
    "TRORRESU": "cm",
    "TRSTRESN": 0.8519,
    "TRSTRESU": "cm"
  },
  {
    "USUBJID": "001-057",
    "ARM": "Drug A 200 mg QD",
    "ARMCD": "A200QD",
    "ACTARM": "Drug A 200 mg QD",
    "ACTARMCD": "A200QD",
    "TRT01P": "Drug A 200 mg QD",
    "TRT01A": "Drug A 200 mg QD",
    "RANDDT": "2024-05-10",
    "TRTSDT": "2024-05-10",
    "TRTENDT": "2024-09-30",
    "STUDYID": "ONCOLOGY-001",
    "AVISIT": "Visit 5",
    "AVISITN": 5,
    "ADY": 174,
    "TRLOC": "brain",
    "TRGRPID": "T12",
    "TRLNKID": "T12",
    "TRTESTCD": "LDIAM",
    "TRTEST": "Longest Diameter",
    "TRORRES": "0.6",
    "TRORRESU": "cm",
    "TRSTRESN": 0.6389,
    "TRSTRESU": "cm"
  },
  {
    "USUBJID": "001-057",
    "ARM": "Drug A 200 mg QD",
    "ARMCD": "A200QD",
    "ACTARM": "Drug A 200 mg QD",
    "ACTARMCD": "A200QD",
    "TRT01P": "Drug A 200 mg QD",
    "TRT01A": "Drug A 200 mg QD",
    "RANDDT": "2024-05-10",
    "TRTSDT": "2024-05-10",
    "TRTENDT": "2024-09-30",
    "STUDYID": "ONCOLOGY-001",
    "AVISIT": "Visit 6",
    "AVISITN": 6,
    "ADY": 206,
    "TRLOC": "brain",
    "TRGRPID": "T10.1",
    "TRLNKID": "T10.1",
    "TRTESTCD": "LDIAM",
    "TRTEST": "Longest Diameter",
    "TRORRES": "1.0",
    "TRORRESU": "cm",
    "TRSTRESN": 1.0066,
    "TRSTRESU": "cm"
  },
  {
    "USUBJID": "001-057",
    "ARM": "Drug A 200 mg QD",
    "ARMCD": "A200QD",
    "ACTARM": "Drug A 200 mg QD",
    "ACTARMCD": "A200QD",
    "TRT01P": "Drug A 200 mg QD",
    "TRT01A": "Drug A 200 mg QD",
    "RANDDT": "2024-05-10",
    "TRTSDT": "2024-05-10",
    "TRTENDT": "2024-09-30",
    "STUDYID": "ONCOLOGY-001",
    "AVISIT": "Visit 6",
    "AVISITN": 6,
    "ADY": 206,
    "TRLOC": "brain",
    "TRGRPID": "T10.2",
    "TRLNKID": "T10.2",
    "TRTESTCD": "LDIAM",
    "TRTEST": "Longest Diameter",
    "TRORRES": "0.9",
    "TRORRESU": "cm",
    "TRSTRESN": 0.9059,
    "TRSTRESU": "cm"
  },
  {
    "USUBJID": "001-057",
    "ARM": "Drug A 200 mg QD",
    "ARMCD": "A200QD",
    "ACTARM": "Drug A 200 mg QD",
    "ACTARMCD": "A200QD",
    "TRT01P": "Drug A 200 mg QD",
    "TRT01A": "Drug A 200 mg QD",
    "RANDDT": "2024-05-10",
    "TRTSDT": "2024-05-10",
    "TRTENDT": "2024-09-30",
    "STUDYID": "ONCOLOGY-001",
    "AVISIT": "Visit 6",
    "AVISITN": 6,
    "ADY": 206,
    "TRLOC": "brain",
    "TRGRPID": "T11",
    "TRLNKID": "T11",
    "TRTESTCD": "LDIAM",
    "TRTEST": "Longest Diameter",
    "TRORRES": "0.9",
    "TRORRESU": "cm",
    "TRSTRESN": 0.9059,
    "TRSTRESU": "cm"
  },
  {
    "USUBJID": "001-061",
    "ARM": "Placebo",
    "ARMCD": "PBO",
    "ACTARM": "Placebo",
    "ACTARMCD": "PBO",
    "TRT01P": "Placebo",
    "TRT01A": "Placebo",
    "RANDDT": "2024-03-29",
    "TRTSDT": "2024-03-29",
    "TRTENDT": "2025-03-11",
    "STUDYID": "ONCOLOGY-001",
    "AVISIT": "Visit 1",
    "AVISITN": 1,
    "ADY": 0,
    "TRLOC": "kidney",
    "TRGRPID": "T20",
    "TRLNKID": "T20",
    "TRTESTCD": "LDIAM",
    "TRTEST": "Longest Diameter",
    "TRORRES": "2.1",
    "TRORRESU": "cm",
    "TRSTRESN": 2.0875,
    "TRSTRESU": "cm"
  },
  {
    "USUBJID": "001-061",
    "ARM": "Placebo",
    "ARMCD": "PBO",
    "ACTARM": "Placebo",
    "ACTARMCD": "PBO",
    "TRT01P": "Placebo",
    "TRT01A": "Placebo",
    "RANDDT": "2024-03-29",
    "TRTSDT": "2024-03-29",
    "TRTENDT": "2025-03-11",
    "STUDYID": "ONCOLOGY-001",
    "AVISIT": "Visit 1",
    "AVISITN": 1,
    "ADY": 0,
    "TRLOC": "kidney",
    "TRGRPID": "T21",
    "TRLNKID": "T21",
    "TRTESTCD": "LDIAM",
    "TRTEST": "Longest Diameter",
    "TRORRES": "1.5",
    "TRORRESU": "cm",
    "TRSTRESN": 1.5182,
    "TRSTRESU": "cm"
  },
  {
    "USUBJID": "001-061",
    "ARM": "Placebo",
    "ARMCD": "PBO",
    "ACTARM": "Placebo",
    "ACTARMCD": "PBO",
    "TRT01P": "Placebo",
    "TRT01A": "Placebo",
    "RANDDT": "2024-03-29",
    "TRTSDT": "2024-03-29",
    "TRTENDT": "2025-03-11",
    "STUDYID": "ONCOLOGY-001",
    "AVISIT": "Visit 1",
    "AVISITN": 1,
    "ADY": 0,
    "TRLOC": "lung",
    "TRGRPID": "T06",
    "TRLNKID": "T06",
    "TRTESTCD": "LDIAM",
    "TRTEST": "Longest Diameter",
    "TRORRES": "2.4",
    "TRORRESU": "cm",
    "TRSTRESN": 2.3722,
    "TRSTRESU": "cm"
  },
  {
    "USUBJID": "001-061",
    "ARM": "Placebo",
    "ARMCD": "PBO",
    "ACTARM": "Placebo",
    "ACTARMCD": "PBO",
    "TRT01P": "Placebo",
    "TRT01A": "Placebo",
    "RANDDT": "2024-03-29",
    "TRTSDT": "2024-03-29",
    "TRTENDT": "2025-03-11",
    "STUDYID": "ONCOLOGY-001",
    "AVISIT": "Visit 1",
    "AVISITN": 1,
    "ADY": 0,
    "TRLOC": "lung",
    "TRGRPID": "T07",
    "TRLNKID": "T07",
    "TRTESTCD": "LDIAM",
    "TRTEST": "Longest Diameter",
    "TRORRES": "1.7",
    "TRORRESU": "cm",
    "TRSTRESN": 1.708,
    "TRSTRESU": "cm"
  },
  {
    "USUBJID": "001-061",
    "ARM": "Placebo",
    "ARMCD": "PBO",
    "ACTARM": "Placebo",
    "ACTARMCD": "PBO",
    "TRT01P": "Placebo",
    "TRT01A": "Placebo",
    "RANDDT": "2024-03-29",
    "TRTSDT": "2024-03-29",
    "TRTENDT": "2025-03-11",
    "STUDYID": "ONCOLOGY-001",
    "AVISIT": "Visit 2",
    "AVISITN": 2,
    "ADY": 47,
    "TRLOC": "kidney",
    "TRGRPID": "T20",
    "TRLNKID": "T20",
    "TRTESTCD": "LDIAM",
    "TRTEST": "Longest Diameter",
    "TRORRES": "2.2",
    "TRORRESU": "cm",
    "TRSTRESN": 2.2118,
    "TRSTRESU": "cm"
  },
  {
    "USUBJID": "001-061",
    "ARM": "Placebo",
    "ARMCD": "PBO",
    "ACTARM": "Placebo",
    "ACTARMCD": "PBO",
    "TRT01P": "Placebo",
    "TRT01A": "Placebo",
    "RANDDT": "2024-03-29",
    "TRTSDT": "2024-03-29",
    "TRTENDT": "2025-03-11",
    "STUDYID": "ONCOLOGY-001",
    "AVISIT": "Visit 2",
    "AVISITN": 2,
    "ADY": 47,
    "TRLOC": "kidney",
    "TRGRPID": "T21",
    "TRLNKID": "T21",
    "TRTESTCD": "LDIAM",
    "TRTEST": "Longest Diameter",
    "TRORRES": "1.6",
    "TRORRESU": "cm",
    "TRSTRESN": 1.5667,
    "TRSTRESU": "cm"
  },
  {
    "USUBJID": "001-061",
    "ARM": "Placebo",
    "ARMCD": "PBO",
    "ACTARM": "Placebo",
    "ACTARMCD": "PBO",
    "TRT01P": "Placebo",
    "TRT01A": "Placebo",
    "RANDDT": "2024-03-29",
    "TRTSDT": "2024-03-29",
    "TRTENDT": "2025-03-11",
    "STUDYID": "ONCOLOGY-001",
    "AVISIT": "Visit 2",
    "AVISITN": 2,
    "ADY": 47,
    "TRLOC": "lung",
    "TRGRPID": "T06",
    "TRLNKID": "T06",
    "TRTESTCD": "LDIAM",
    "TRTEST": "Longest Diameter",
    "TRORRES": "2.5",
    "TRORRESU": "cm",
    "TRSTRESN": 2.4883,
    "TRSTRESU": "cm"
  },
  {
    "USUBJID": "001-061",
    "ARM": "Placebo",
    "ARMCD": "PBO",
    "ACTARM": "Placebo",
    "ACTARMCD": "PBO",
    "TRT01P": "Placebo",
    "TRT01A": "Placebo",
    "RANDDT": "2024-03-29",
    "TRTSDT": "2024-03-29",
    "TRTENDT": "2025-03-11",
    "STUDYID": "ONCOLOGY-001",
    "AVISIT": "Visit 2",
    "AVISITN": 2,
    "ADY": 47,
    "TRLOC": "lung",
    "TRGRPID": "T07",
    "TRLNKID": "T07",
    "TRTESTCD": "LDIAM",
    "TRTEST": "Longest Diameter",
    "TRORRES": "1.8",
    "TRORRESU": "cm",
    "TRSTRESN": 1.751,
    "TRSTRESU": "cm"
  },
  {
    "USUBJID": "001-061",
    "ARM": "Placebo",
    "ARMCD": "PBO",
    "ACTARM": "Placebo",
    "ACTARMCD": "PBO",
    "TRT01P": "Placebo",
    "TRT01A": "Placebo",
    "RANDDT": "2024-03-29",
    "TRTSDT": "2024-03-29",
    "TRTENDT": "2025-03-11",
    "STUDYID": "ONCOLOGY-001",
    "AVISIT": "Visit 3",
    "AVISITN": 3,
    "ADY": 87,
    "TRLOC": "kidney",
    "TRGRPID": "T20",
    "TRLNKID": "T20",
    "TRTESTCD": "LDIAM",
    "TRTEST": "Longest Diameter",
    "TRORRES": "2.1",
    "TRORRESU": "cm",
    "TRSTRESN": 2.0829,
    "TRSTRESU": "cm"
  },
  {
    "USUBJID": "001-061",
    "ARM": "Placebo",
    "ARMCD": "PBO",
    "ACTARM": "Placebo",
    "ACTARMCD": "PBO",
    "TRT01P": "Placebo",
    "TRT01A": "Placebo",
    "RANDDT": "2024-03-29",
    "TRTSDT": "2024-03-29",
    "TRTENDT": "2025-03-11",
    "STUDYID": "ONCOLOGY-001",
    "AVISIT": "Visit 3",
    "AVISITN": 3,
    "ADY": 87,
    "TRLOC": "kidney",
    "TRGRPID": "T21",
    "TRLNKID": "T21",
    "TRTESTCD": "LDIAM",
    "TRTEST": "Longest Diameter",
    "TRORRES": "1.4",
    "TRORRESU": "cm",
    "TRSTRESN": 1.442,
    "TRSTRESU": "cm"
  },
  {
    "USUBJID": "001-061",
    "ARM": "Placebo",
    "ARMCD": "PBO",
    "ACTARM": "Placebo",
    "ACTARMCD": "PBO",
    "TRT01P": "Placebo",
    "TRT01A": "Placebo",
    "RANDDT": "2024-03-29",
    "TRTSDT": "2024-03-29",
    "TRTENDT": "2025-03-11",
    "STUDYID": "ONCOLOGY-001",
    "AVISIT": "Visit 3",
    "AVISITN": 3,
    "ADY": 87,
    "TRLOC": "lung",
    "TRGRPID": "T06",
    "TRLNKID": "T06",
    "TRTESTCD": "LDIAM",
    "TRTEST": "Longest Diameter",
    "TRORRES": "2.3",
    "TRORRESU": "cm",
    "TRSTRESN": 2.3233,
    "TRSTRESU": "cm"
  },
  {
    "USUBJID": "001-061",
    "ARM": "Placebo",
    "ARMCD": "PBO",
    "ACTARM": "Placebo",
    "ACTARMCD": "PBO",
    "TRT01P": "Placebo",
    "TRT01A": "Placebo",
    "RANDDT": "2024-03-29",
    "TRTSDT": "2024-03-29",
    "TRTENDT": "2025-03-11",
    "STUDYID": "ONCOLOGY-001",
    "AVISIT": "Visit 3",
    "AVISITN": 3,
    "ADY": 87,
    "TRLOC": "lung",
    "TRGRPID": "T07",
    "TRLNKID": "T07",
    "TRTESTCD": "LDIAM",
    "TRTEST": "Longest Diameter",
    "TRORRES": "1.6",
    "TRORRESU": "cm",
    "TRSTRESN": 1.6023,
    "TRSTRESU": "cm"
  },
  {
    "USUBJID": "001-061",
    "ARM": "Placebo",
    "ARMCD": "PBO",
    "ACTARM": "Placebo",
    "ACTARMCD": "PBO",
    "TRT01P": "Placebo",
    "TRT01A": "Placebo",
    "RANDDT": "2024-03-29",
    "TRTSDT": "2024-03-29",
    "TRTENDT": "2025-03-11",
    "STUDYID": "ONCOLOGY-001",
    "AVISIT": "Visit 4",
    "AVISITN": 4,
    "ADY": 131,
    "TRLOC": "kidney",
    "TRGRPID": "T20/T21",
    "TRLNKID": "T20/T21",
    "TRTESTCD": "LDIAM",
    "TRTEST": "Longest Diameter",
    "TRORRES": "2.2",
    "TRORRESU": "cm",
    "TRSTRESN": 2.2494,
    "TRSTRESU": "cm"
  },
  {
    "USUBJID": "001-061",
    "ARM": "Placebo",
    "ARMCD": "PBO",
    "ACTARM": "Placebo",
    "ACTARMCD": "PBO",
    "TRT01P": "Placebo",
    "TRT01A": "Placebo",
    "RANDDT": "2024-03-29",
    "TRTSDT": "2024-03-29",
    "TRTENDT": "2025-03-11",
    "STUDYID": "ONCOLOGY-001",
    "AVISIT": "Visit 4",
    "AVISITN": 4,
    "ADY": 131,
    "TRLOC": "lung",
    "TRGRPID": "T06/T07",
    "TRLNKID": "T06/T07",
    "TRTESTCD": "LDIAM",
    "TRTEST": "Longest Diameter",
    "TRORRES": "2.5",
    "TRORRESU": "cm",
    "TRSTRESN": 2.4993,
    "TRSTRESU": "cm"
  },
  {
    "USUBJID": "001-061",
    "ARM": "Placebo",
    "ARMCD": "PBO",
    "ACTARM": "Placebo",
    "ACTARMCD": "PBO",
    "TRT01P": "Placebo",
    "TRT01A": "Placebo",
    "RANDDT": "2024-03-29",
    "TRTSDT": "2024-03-29",
    "TRTENDT": "2025-03-11",
    "STUDYID": "ONCOLOGY-001",
    "AVISIT": "Visit 5",
    "AVISITN": 5,
    "ADY": 179,
    "TRLOC": "kidney",
    "TRGRPID": "T20/T21",
    "TRLNKID": "T20/T21",
    "TRTESTCD": "LDIAM",
    "TRTEST": "Longest Diameter",
    "TRORRES": "1.7",
    "TRORRESU": "cm",
    "TRSTRESN": 1.7173,
    "TRSTRESU": "cm"
  },
  {
    "USUBJID": "001-061",
    "ARM": "Placebo",
    "ARMCD": "PBO",
    "ACTARM": "Placebo",
    "ACTARMCD": "PBO",
    "TRT01P": "Placebo",
    "TRT01A": "Placebo",
    "RANDDT": "2024-03-29",
    "TRTSDT": "2024-03-29",
    "TRTENDT": "2025-03-11",
    "STUDYID": "ONCOLOGY-001",
    "AVISIT": "Visit 5",
    "AVISITN": 5,
    "ADY": 179,
    "TRLOC": "lung",
    "TRGRPID": "T06/T07",
    "TRLNKID": "T06/T07",
    "TRTESTCD": "LDIAM",
    "TRTEST": "Longest Diameter",
    "TRORRES": "1.9",
    "TRORRESU": "cm",
    "TRSTRESN": 1.9432,
    "TRSTRESU": "cm"
  },
  {
    "USUBJID": "001-061",
    "ARM": "Placebo",
    "ARMCD": "PBO",
    "ACTARM": "Placebo",
    "ACTARMCD": "PBO",
    "TRT01P": "Placebo",
    "TRT01A": "Placebo",
    "RANDDT": "2024-03-29",
    "TRTSDT": "2024-03-29",
    "TRTENDT": "2025-03-11",
    "STUDYID": "ONCOLOGY-001",
    "AVISIT": "Visit 6",
    "AVISITN": 6,
    "ADY": 223,
    "TRLOC": "kidney",
    "TRGRPID": "T20/T21",
    "TRLNKID": "T20/T21",
    "TRTESTCD": "LDIAM",
    "TRTEST": "Longest Diameter",
    "TRORRES": "1.2",
    "TRORRESU": "cm",
    "TRSTRESN": 1.227,
    "TRSTRESU": "cm"
  },
  {
    "USUBJID": "001-061",
    "ARM": "Placebo",
    "ARMCD": "PBO",
    "ACTARM": "Placebo",
    "ACTARMCD": "PBO",
    "TRT01P": "Placebo",
    "TRT01A": "Placebo",
    "RANDDT": "2024-03-29",
    "TRTSDT": "2024-03-29",
    "TRTENDT": "2025-03-11",
    "STUDYID": "ONCOLOGY-001",
    "AVISIT": "Visit 6",
    "AVISITN": 6,
    "ADY": 223,
    "TRLOC": "lung",
    "TRGRPID": "T06/T07",
    "TRLNKID": "T06/T07",
    "TRTESTCD": "LDIAM",
    "TRTEST": "Longest Diameter",
    "TRORRES": "1.4",
    "TRORRESU": "cm",
    "TRSTRESN": 1.4111,
    "TRSTRESU": "cm"
  },
  {
    "USUBJID": "001-062",
    "ARM": "Placebo",
    "ARMCD": "PBO",
    "ACTARM": "Placebo",
    "ACTARMCD": "PBO",
    "TRT01P": "Placebo",
    "TRT01A": "Placebo",
    "RANDDT": "2024-05-23",
    "TRTSDT": "2024-05-23",
    "TRTENDT": "2024-11-20",
    "STUDYID": "ONCOLOGY-001",
    "AVISIT": "Visit 1",
    "AVISITN": 1,
    "ADY": 0,
    "TRLOC": "kidney",
    "TRGRPID": "T20",
    "TRLNKID": "T20",
    "TRTESTCD": "LDIAM",
    "TRTEST": "Longest Diameter",
    "TRORRES": "2.0",
    "TRORRESU": "cm",
    "TRSTRESN": 1.9986,
    "TRSTRESU": "cm"
  },
  {
    "USUBJID": "001-062",
    "ARM": "Placebo",
    "ARMCD": "PBO",
    "ACTARM": "Placebo",
    "ACTARMCD": "PBO",
    "TRT01P": "Placebo",
    "TRT01A": "Placebo",
    "RANDDT": "2024-05-23",
    "TRTSDT": "2024-05-23",
    "TRTENDT": "2024-11-20",
    "STUDYID": "ONCOLOGY-001",
    "AVISIT": "Visit 1",
    "AVISITN": 1,
    "ADY": 0,
    "TRLOC": "kidney",
    "TRGRPID": "T21",
    "TRLNKID": "T21",
    "TRTESTCD": "LDIAM",
    "TRTEST": "Longest Diameter",
    "TRORRES": "1.5",
    "TRORRESU": "cm",
    "TRSTRESN": 1.4535,
    "TRSTRESU": "cm"
  },
  {
    "USUBJID": "001-062",
    "ARM": "Placebo",
    "ARMCD": "PBO",
    "ACTARM": "Placebo",
    "ACTARMCD": "PBO",
    "TRT01P": "Placebo",
    "TRT01A": "Placebo",
    "RANDDT": "2024-05-23",
    "TRTSDT": "2024-05-23",
    "TRTENDT": "2024-11-20",
    "STUDYID": "ONCOLOGY-001",
    "AVISIT": "Visit 2",
    "AVISITN": 2,
    "ADY": 29,
    "TRLOC": "kidney",
    "TRGRPID": "T20",
    "TRLNKID": "T20",
    "TRTESTCD": "LDIAM",
    "TRTEST": "Longest Diameter",
    "TRORRES": "2.4",
    "TRORRESU": "cm",
    "TRSTRESN": 2.3797,
    "TRSTRESU": "cm"
  },
  {
    "USUBJID": "001-062",
    "ARM": "Placebo",
    "ARMCD": "PBO",
    "ACTARM": "Placebo",
    "ACTARMCD": "PBO",
    "TRT01P": "Placebo",
    "TRT01A": "Placebo",
    "RANDDT": "2024-05-23",
    "TRTSDT": "2024-05-23",
    "TRTENDT": "2024-11-20",
    "STUDYID": "ONCOLOGY-001",
    "AVISIT": "Visit 2",
    "AVISITN": 2,
    "ADY": 29,
    "TRLOC": "kidney",
    "TRGRPID": "T21",
    "TRLNKID": "T21",
    "TRTESTCD": "LDIAM",
    "TRTEST": "Longest Diameter",
    "TRORRES": "1.7",
    "TRORRESU": "cm",
    "TRSTRESN": 1.6856,
    "TRSTRESU": "cm"
  },
  {
    "USUBJID": "001-062",
    "ARM": "Placebo",
    "ARMCD": "PBO",
    "ACTARM": "Placebo",
    "ACTARMCD": "PBO",
    "TRT01P": "Placebo",
    "TRT01A": "Placebo",
    "RANDDT": "2024-05-23",
    "TRTSDT": "2024-05-23",
    "TRTENDT": "2024-11-20",
    "STUDYID": "ONCOLOGY-001",
    "AVISIT": "Visit 2",
    "AVISITN": 2,
    "ADY": 29,
    "TRLOC": "kidney",
    "TRGRPID": "T22",
    "TRLNKID": "T22",
    "TRTESTCD": "LDIAM",
    "TRTEST": "Longest Diameter",
    "TRORRES": "1.1",
    "TRORRESU": "cm",
    "TRSTRESN": 1.0907,
    "TRSTRESU": "cm"
  },
  {
    "USUBJID": "001-062",
    "ARM": "Placebo",
    "ARMCD": "PBO",
    "ACTARM": "Placebo",
    "ACTARMCD": "PBO",
    "TRT01P": "Placebo",
    "TRT01A": "Placebo",
    "RANDDT": "2024-05-23",
    "TRTSDT": "2024-05-23",
    "TRTENDT": "2024-11-20",
    "STUDYID": "ONCOLOGY-001",
    "AVISIT": "Visit 5",
    "AVISITN": 5,
    "ADY": 145,
    "TRLOC": "kidney",
    "TRGRPID": "T20/T21",
    "TRLNKID": "T20/T21",
    "TRTESTCD": "LDIAM",
    "TRTEST": "Longest Diameter",
    "TRORRES": "3.8",
    "TRORRESU": "cm",
    "TRSTRESN": 3.7734,
    "TRSTRESU": "cm"
  },
  {
    "USUBJID": "001-062",
    "ARM": "Placebo",
    "ARMCD": "PBO",
    "ACTARM": "Placebo",
    "ACTARMCD": "PBO",
    "TRT01P": "Placebo",
    "TRT01A": "Placebo",
    "RANDDT": "2024-05-23",
    "TRTSDT": "2024-05-23",
    "TRTENDT": "2024-11-20",
    "STUDYID": "ONCOLOGY-001",
    "AVISIT": "Visit 5",
    "AVISITN": 5,
    "ADY": 145,
    "TRLOC": "kidney",
    "TRGRPID": "T22",
    "TRLNKID": "T22",
    "TRTESTCD": "LDIAM",
    "TRTEST": "Longest Diameter",
    "TRORRES": "1.4",
    "TRORRESU": "cm",
    "TRSTRESN": 1.3902,
    "TRSTRESU": "cm"
  },
  {
    "USUBJID": "001-062",
    "ARM": "Placebo",
    "ARMCD": "PBO",
    "ACTARM": "Placebo",
    "ACTARMCD": "PBO",
    "TRT01P": "Placebo",
    "TRT01A": "Placebo",
    "RANDDT": "2024-05-23",
    "TRTSDT": "2024-05-23",
    "TRTENDT": "2024-11-20",
    "STUDYID": "ONCOLOGY-001",
    "AVISIT": "Visit 5",
    "AVISITN": 5,
    "ADY": 145,
    "TRLOC": "kidney",
    "TRGRPID": "T23",
    "TRLNKID": "T23",
    "TRTESTCD": "LDIAM",
    "TRTEST": "Longest Diameter",
    "TRORRES": "1.0",
    "TRORRESU": "cm",
    "TRSTRESN": 0.993,
    "TRSTRESU": "cm"
  },
  {
    "USUBJID": "001-062",
    "ARM": "Placebo",
    "ARMCD": "PBO",
    "ACTARM": "Placebo",
    "ACTARMCD": "PBO",
    "TRT01P": "Placebo",
    "TRT01A": "Placebo",
    "RANDDT": "2024-05-23",
    "TRTSDT": "2024-05-23",
    "TRTENDT": "2024-11-20",
    "STUDYID": "ONCOLOGY-001",
    "AVISIT": "Visit 6",
    "AVISITN": 6,
    "ADY": 181,
    "TRLOC": "kidney",
    "TRGRPID": "T20/T21",
    "TRLNKID": "T20/T21",
    "TRTESTCD": "LDIAM",
    "TRTEST": "Longest Diameter",
    "TRORRES": "3.9",
    "TRORRESU": "cm",
    "TRSTRESN": 3.881,
    "TRSTRESU": "cm"
  },
  {
    "USUBJID": "001-062",
    "ARM": "Placebo",
    "ARMCD": "PBO",
    "ACTARM": "Placebo",
    "ACTARMCD": "PBO",
    "TRT01P": "Placebo",
    "TRT01A": "Placebo",
    "RANDDT": "2024-05-23",
    "TRTSDT": "2024-05-23",
    "TRTENDT": "2024-11-20",
    "STUDYID": "ONCOLOGY-001",
    "AVISIT": "Visit 6",
    "AVISITN": 6,
    "ADY": 181,
    "TRLOC": "kidney",
    "TRGRPID": "T22",
    "TRLNKID": "T22",
    "TRTESTCD": "LDIAM",
    "TRTEST": "Longest Diameter",
    "TRORRES": "1.5",
    "TRORRESU": "cm",
    "TRSTRESN": 1.4554,
    "TRSTRESU": "cm"
  },
  {
    "USUBJID": "001-062",
    "ARM": "Placebo",
    "ARMCD": "PBO",
    "ACTARM": "Placebo",
    "ACTARMCD": "PBO",
    "TRT01P": "Placebo",
    "TRT01A": "Placebo",
    "RANDDT": "2024-05-23",
    "TRTSDT": "2024-05-23",
    "TRTENDT": "2024-11-20",
    "STUDYID": "ONCOLOGY-001",
    "AVISIT": "Visit 7",
    "AVISITN": 7,
    "ADY": 214,
    "TRLOC": "kidney",
    "TRGRPID": "T20/T21",
    "TRLNKID": "T20/T21",
    "TRTESTCD": "LDIAM",
    "TRTEST": "Longest Diameter",
    "TRORRES": "4.1",
    "TRORRESU": "cm",
    "TRSTRESN": 4.1393,
    "TRSTRESU": "cm"
  },
  {
    "USUBJID": "001-062",
    "ARM": "Placebo",
    "ARMCD": "PBO",
    "ACTARM": "Placebo",
    "ACTARMCD": "PBO",
    "TRT01P": "Placebo",
    "TRT01A": "Placebo",
    "RANDDT": "2024-05-23",
    "TRTSDT": "2024-05-23",
    "TRTENDT": "2024-11-20",
    "STUDYID": "ONCOLOGY-001",
    "AVISIT": "Visit 7",
    "AVISITN": 7,
    "ADY": 214,
    "TRLOC": "kidney",
    "TRGRPID": "T22",
    "TRLNKID": "T22",
    "TRTESTCD": "LDIAM",
    "TRTEST": "Longest Diameter",
    "TRORRES": "1.6",
    "TRORRESU": "cm",
    "TRSTRESN": 1.5769,
    "TRSTRESU": "cm"
  },
  {
    "USUBJID": "001-064",
    "ARM": "Placebo",
    "ARMCD": "PBO",
    "ACTARM": "Placebo",
    "ACTARMCD": "PBO",
    "TRT01P": "Placebo",
    "TRT01A": "Placebo",
    "RANDDT": "2024-03-12",
    "TRTSDT": "2024-03-12",
    "TRTENDT": "2024-11-01",
    "STUDYID": "ONCOLOGY-001",
    "AVISIT": "Visit 1",
    "AVISITN": 1,
    "ADY": 0,
    "TRLOC": "brain",
    "TRGRPID": "T10",
    "TRLNKID": "T10",
    "TRTESTCD": "LDIAM",
    "TRTEST": "Longest Diameter",
    "TRORRES": "1.7",
    "TRORRESU": "cm",
    "TRSTRESN": 1.7389,
    "TRSTRESU": "cm"
  },
  {
    "USUBJID": "001-064",
    "ARM": "Placebo",
    "ARMCD": "PBO",
    "ACTARM": "Placebo",
    "ACTARMCD": "PBO",
    "TRT01P": "Placebo",
    "TRT01A": "Placebo",
    "RANDDT": "2024-03-12",
    "TRTSDT": "2024-03-12",
    "TRTENDT": "2024-11-01",
    "STUDYID": "ONCOLOGY-001",
    "AVISIT": "Visit 1",
    "AVISITN": 1,
    "ADY": 0,
    "TRLOC": "lung",
    "TRGRPID": "T06",
    "TRLNKID": "T06",
    "TRTESTCD": "LDIAM",
    "TRTEST": "Longest Diameter",
    "TRORRES": "3.6",
    "TRORRESU": "cm",
    "TRSTRESN": 3.6226,
    "TRSTRESU": "cm"
  },
  {
    "USUBJID": "001-064",
    "ARM": "Placebo",
    "ARMCD": "PBO",
    "ACTARM": "Placebo",
    "ACTARMCD": "PBO",
    "TRT01P": "Placebo",
    "TRT01A": "Placebo",
    "RANDDT": "2024-03-12",
    "TRTSDT": "2024-03-12",
    "TRTENDT": "2024-11-01",
    "STUDYID": "ONCOLOGY-001",
    "AVISIT": "Visit 1",
    "AVISITN": 1,
    "ADY": 0,
    "TRLOC": "lung",
    "TRGRPID": "T07",
    "TRLNKID": "T07",
    "TRTESTCD": "LDIAM",
    "TRTEST": "Longest Diameter",
    "TRORRES": "2.6",
    "TRORRESU": "cm",
    "TRSTRESN": 2.6083,
    "TRSTRESU": "cm"
  },
  {
    "USUBJID": "001-064",
    "ARM": "Placebo",
    "ARMCD": "PBO",
    "ACTARM": "Placebo",
    "ACTARMCD": "PBO",
    "TRT01P": "Placebo",
    "TRT01A": "Placebo",
    "RANDDT": "2024-03-12",
    "TRTSDT": "2024-03-12",
    "TRTENDT": "2024-11-01",
    "STUDYID": "ONCOLOGY-001",
    "AVISIT": "Visit 2",
    "AVISITN": 2,
    "ADY": 62,
    "TRLOC": "brain",
    "TRGRPID": "T10",
    "TRLNKID": "T10",
    "TRTESTCD": "LDIAM",
    "TRTEST": "Longest Diameter",
    "TRORRES": "1.7",
    "TRORRESU": "cm",
    "TRSTRESN": 1.7378,
    "TRSTRESU": "cm"
  },
  {
    "USUBJID": "001-064",
    "ARM": "Placebo",
    "ARMCD": "PBO",
    "ACTARM": "Placebo",
    "ACTARMCD": "PBO",
    "TRT01P": "Placebo",
    "TRT01A": "Placebo",
    "RANDDT": "2024-03-12",
    "TRTSDT": "2024-03-12",
    "TRTENDT": "2024-11-01",
    "STUDYID": "ONCOLOGY-001",
    "AVISIT": "Visit 2",
    "AVISITN": 2,
    "ADY": 62,
    "TRLOC": "lung",
    "TRGRPID": "T06",
    "TRLNKID": "T06",
    "TRTESTCD": "LDIAM",
    "TRTEST": "Longest Diameter",
    "TRORRES": "3.6",
    "TRORRESU": "cm",
    "TRSTRESN": 3.6093,
    "TRSTRESU": "cm"
  },
  {
    "USUBJID": "001-064",
    "ARM": "Placebo",
    "ARMCD": "PBO",
    "ACTARM": "Placebo",
    "ACTARMCD": "PBO",
    "TRT01P": "Placebo",
    "TRT01A": "Placebo",
    "RANDDT": "2024-03-12",
    "TRTSDT": "2024-03-12",
    "TRTENDT": "2024-11-01",
    "STUDYID": "ONCOLOGY-001",
    "AVISIT": "Visit 2",
    "AVISITN": 2,
    "ADY": 62,
    "TRLOC": "lung",
    "TRGRPID": "T07",
    "TRLNKID": "T07",
    "TRTESTCD": "LDIAM",
    "TRTEST": "Longest Diameter",
    "TRORRES": "2.5",
    "TRORRESU": "cm",
    "TRSTRESN": 2.5399,
    "TRSTRESU": "cm"
  },
  {
    "USUBJID": "001-064",
    "ARM": "Placebo",
    "ARMCD": "PBO",
    "ACTARM": "Placebo",
    "ACTARMCD": "PBO",
    "TRT01P": "Placebo",
    "TRT01A": "Placebo",
    "RANDDT": "2024-03-12",
    "TRTSDT": "2024-03-12",
    "TRTENDT": "2024-11-01",
    "STUDYID": "ONCOLOGY-001",
    "AVISIT": "Visit 2",
    "AVISITN": 2,
    "ADY": 62,
    "TRLOC": "lung",
    "TRGRPID": "T08",
    "TRLNKID": "T08",
    "TRTESTCD": "LDIAM",
    "TRTEST": "Longest Diameter",
    "TRORRES": "1.6",
    "TRORRESU": "cm",
    "TRSTRESN": 1.6041,
    "TRSTRESU": "cm"
  },
  {
    "USUBJID": "001-064",
    "ARM": "Placebo",
    "ARMCD": "PBO",
    "ACTARM": "Placebo",
    "ACTARMCD": "PBO",
    "TRT01P": "Placebo",
    "TRT01A": "Placebo",
    "RANDDT": "2024-03-12",
    "TRTSDT": "2024-03-12",
    "TRTENDT": "2024-11-01",
    "STUDYID": "ONCOLOGY-001",
    "AVISIT": "Visit 3",
    "AVISITN": 3,
    "ADY": 104,
    "TRLOC": "brain",
    "TRGRPID": "T10.1",
    "TRLNKID": "T10.1",
    "TRTESTCD": "LDIAM",
    "TRTEST": "Longest Diameter",
    "TRORRES": "0.9",
    "TRORRESU": "cm",
    "TRSTRESN": 0.926,
    "TRSTRESU": "cm"
  },
  {
    "USUBJID": "001-064",
    "ARM": "Placebo",
    "ARMCD": "PBO",
    "ACTARM": "Placebo",
    "ACTARMCD": "PBO",
    "TRT01P": "Placebo",
    "TRT01A": "Placebo",
    "RANDDT": "2024-03-12",
    "TRTSDT": "2024-03-12",
    "TRTENDT": "2024-11-01",
    "STUDYID": "ONCOLOGY-001",
    "AVISIT": "Visit 3",
    "AVISITN": 3,
    "ADY": 104,
    "TRLOC": "brain",
    "TRGRPID": "T10.2",
    "TRLNKID": "T10.2",
    "TRTESTCD": "LDIAM",
    "TRTEST": "Longest Diameter",
    "TRORRES": "0.8",
    "TRORRESU": "cm",
    "TRSTRESN": 0.7937,
    "TRSTRESU": "cm"
  },
  {
    "USUBJID": "001-064",
    "ARM": "Placebo",
    "ARMCD": "PBO",
    "ACTARM": "Placebo",
    "ACTARMCD": "PBO",
    "TRT01P": "Placebo",
    "TRT01A": "Placebo",
    "RANDDT": "2024-03-12",
    "TRTSDT": "2024-03-12",
    "TRTENDT": "2024-11-01",
    "STUDYID": "ONCOLOGY-001",
    "AVISIT": "Visit 3",
    "AVISITN": 3,
    "ADY": 104,
    "TRLOC": "brain",
    "TRGRPID": "T11",
    "TRLNKID": "T11",
    "TRTESTCD": "LDIAM",
    "TRTEST": "Longest Diameter",
    "TRORRES": "0.8",
    "TRORRESU": "cm",
    "TRSTRESN": 0.7937,
    "TRSTRESU": "cm"
  },
  {
    "USUBJID": "001-064",
    "ARM": "Placebo",
    "ARMCD": "PBO",
    "ACTARM": "Placebo",
    "ACTARMCD": "PBO",
    "TRT01P": "Placebo",
    "TRT01A": "Placebo",
    "RANDDT": "2024-03-12",
    "TRTSDT": "2024-03-12",
    "TRTENDT": "2024-11-01",
    "STUDYID": "ONCOLOGY-001",
    "AVISIT": "Visit 3",
    "AVISITN": 3,
    "ADY": 104,
    "TRLOC": "lung",
    "TRGRPID": "T06",
    "TRLNKID": "T06",
    "TRTESTCD": "LDIAM",
    "TRTEST": "Longest Diameter",
    "TRORRES": "3.8",
    "TRORRESU": "cm",
    "TRSTRESN": 3.8363,
    "TRSTRESU": "cm"
  },
  {
    "USUBJID": "001-064",
    "ARM": "Placebo",
    "ARMCD": "PBO",
    "ACTARM": "Placebo",
    "ACTARMCD": "PBO",
    "TRT01P": "Placebo",
    "TRT01A": "Placebo",
    "RANDDT": "2024-03-12",
    "TRTSDT": "2024-03-12",
    "TRTENDT": "2024-11-01",
    "STUDYID": "ONCOLOGY-001",
    "AVISIT": "Visit 3",
    "AVISITN": 3,
    "ADY": 104,
    "TRLOC": "lung",
    "TRGRPID": "T07",
    "TRLNKID": "T07",
    "TRTESTCD": "LDIAM",
    "TRTEST": "Longest Diameter",
    "TRORRES": "2.6",
    "TRORRESU": "cm",
    "TRSTRESN": 2.6458,
    "TRSTRESU": "cm"
  },
  {
    "USUBJID": "001-064",
    "ARM": "Placebo",
    "ARMCD": "PBO",
    "ACTARM": "Placebo",
    "ACTARMCD": "PBO",
    "TRT01P": "Placebo",
    "TRT01A": "Placebo",
    "RANDDT": "2024-03-12",
    "TRTSDT": "2024-03-12",
    "TRTENDT": "2024-11-01",
    "STUDYID": "ONCOLOGY-001",
    "AVISIT": "Visit 3",
    "AVISITN": 3,
    "ADY": 104,
    "TRLOC": "lung",
    "TRGRPID": "T08",
    "TRLNKID": "T08",
    "TRTESTCD": "LDIAM",
    "TRTEST": "Longest Diameter",
    "TRORRES": "1.7",
    "TRORRESU": "cm",
    "TRSTRESN": 1.7197,
    "TRSTRESU": "cm"
  },
  {
    "USUBJID": "001-065",
    "ARM": "Drug A 200 mg QD",
    "ARMCD": "A200QD",
    "ACTARM": "Drug A 200 mg QD",
    "ACTARMCD": "A200QD",
    "TRT01P": "Drug A 200 mg QD",
    "TRT01A": "Drug A 200 mg QD",
    "RANDDT": "2024-06-05",
    "TRTSDT": "2024-06-05",
    "TRTENDT": "2024-11-04",
    "STUDYID": "ONCOLOGY-001",
    "AVISIT": "Visit 1",
    "AVISITN": 1,
    "ADY": 0,
    "TRLOC": "liver",
    "TRGRPID": "T01",
    "TRLNKID": "T01",
    "TRTESTCD": "LDIAM",
    "TRTEST": "Longest Diameter",
    "TRORRES": "2.9",
    "TRORRESU": "cm",
    "TRSTRESN": 2.9176,
    "TRSTRESU": "cm"
  },
  {
    "USUBJID": "001-065",
    "ARM": "Drug A 200 mg QD",
    "ARMCD": "A200QD",
    "ACTARM": "Drug A 200 mg QD",
    "ACTARMCD": "A200QD",
    "TRT01P": "Drug A 200 mg QD",
    "TRT01A": "Drug A 200 mg QD",
    "RANDDT": "2024-06-05",
    "TRTSDT": "2024-06-05",
    "TRTENDT": "2024-11-04",
    "STUDYID": "ONCOLOGY-001",
    "AVISIT": "Visit 1",
    "AVISITN": 1,
    "ADY": 0,
    "TRLOC": "liver",
    "TRGRPID": "T02",
    "TRLNKID": "T02",
    "TRTESTCD": "LDIAM",
    "TRTEST": "Longest Diameter",
    "TRORRES": "2.3",
    "TRORRESU": "cm",
    "TRSTRESN": 2.3341,
    "TRSTRESU": "cm"
  },
  {
    "USUBJID": "001-065",
    "ARM": "Drug A 200 mg QD",
    "ARMCD": "A200QD",
    "ACTARM": "Drug A 200 mg QD",
    "ACTARMCD": "A200QD",
    "TRT01P": "Drug A 200 mg QD",
    "TRT01A": "Drug A 200 mg QD",
    "RANDDT": "2024-06-05",
    "TRTSDT": "2024-06-05",
    "TRTENDT": "2024-11-04",
    "STUDYID": "ONCOLOGY-001",
    "AVISIT": "Visit 1",
    "AVISITN": 1,
    "ADY": 0,
    "TRLOC": "liver",
    "TRGRPID": "T03",
    "TRLNKID": "T03",
    "TRTESTCD": "LDIAM",
    "TRTEST": "Longest Diameter",
    "TRORRES": "1.8",
    "TRORRESU": "cm",
    "TRSTRESN": 1.7506,
    "TRSTRESU": "cm"
  },
  {
    "USUBJID": "001-065",
    "ARM": "Drug A 200 mg QD",
    "ARMCD": "A200QD",
    "ACTARM": "Drug A 200 mg QD",
    "ACTARMCD": "A200QD",
    "TRT01P": "Drug A 200 mg QD",
    "TRT01A": "Drug A 200 mg QD",
    "RANDDT": "2024-06-05",
    "TRTSDT": "2024-06-05",
    "TRTENDT": "2024-11-04",
    "STUDYID": "ONCOLOGY-001",
    "AVISIT": "Visit 1",
    "AVISITN": 1,
    "ADY": 0,
    "TRLOC": "lung",
    "TRGRPID": "T06",
    "TRLNKID": "T06",
    "TRTESTCD": "LDIAM",
    "TRTEST": "Longest Diameter",
    "TRORRES": "2.1",
    "TRORRESU": "cm",
    "TRSTRESN": 2.084,
    "TRSTRESU": "cm"
  },
  {
    "USUBJID": "001-065",
    "ARM": "Drug A 200 mg QD",
    "ARMCD": "A200QD",
    "ACTARM": "Drug A 200 mg QD",
    "ACTARMCD": "A200QD",
    "TRT01P": "Drug A 200 mg QD",
    "TRT01A": "Drug A 200 mg QD",
    "RANDDT": "2024-06-05",
    "TRTSDT": "2024-06-05",
    "TRTENDT": "2024-11-04",
    "STUDYID": "ONCOLOGY-001",
    "AVISIT": "Visit 1",
    "AVISITN": 1,
    "ADY": 0,
    "TRLOC": "lung",
    "TRGRPID": "T07",
    "TRLNKID": "T07",
    "TRTESTCD": "LDIAM",
    "TRTEST": "Longest Diameter",
    "TRORRES": "1.5",
    "TRORRESU": "cm",
    "TRSTRESN": 1.5005,
    "TRSTRESU": "cm"
  },
  {
    "USUBJID": "001-065",
    "ARM": "Drug A 200 mg QD",
    "ARMCD": "A200QD",
    "ACTARM": "Drug A 200 mg QD",
    "ACTARMCD": "A200QD",
    "TRT01P": "Drug A 200 mg QD",
    "TRT01A": "Drug A 200 mg QD",
    "RANDDT": "2024-06-05",
    "TRTSDT": "2024-06-05",
    "TRTENDT": "2024-11-04",
    "STUDYID": "ONCOLOGY-001",
    "AVISIT": "Visit 2",
    "AVISITN": 2,
    "ADY": 36,
    "TRLOC": "liver",
    "TRGRPID": "T01",
    "TRLNKID": "T01",
    "TRTESTCD": "LDIAM",
    "TRTEST": "Longest Diameter",
    "TRORRES": "1.1",
    "TRORRESU": "cm",
    "TRSTRESN": 1.0896,
    "TRSTRESU": "cm"
  },
  {
    "USUBJID": "001-065",
    "ARM": "Drug A 200 mg QD",
    "ARMCD": "A200QD",
    "ACTARM": "Drug A 200 mg QD",
    "ACTARMCD": "A200QD",
    "TRT01P": "Drug A 200 mg QD",
    "TRT01A": "Drug A 200 mg QD",
    "RANDDT": "2024-06-05",
    "TRTSDT": "2024-06-05",
    "TRTENDT": "2024-11-04",
    "STUDYID": "ONCOLOGY-001",
    "AVISIT": "Visit 2",
    "AVISITN": 2,
    "ADY": 36,
    "TRLOC": "liver",
    "TRGRPID": "T02",
    "TRLNKID": "T02",
    "TRTESTCD": "LDIAM",
    "TRTEST": "Longest Diameter",
    "TRORRES": "0.9",
    "TRORRESU": "cm",
    "TRSTRESN": 0.8602,
    "TRSTRESU": "cm"
  },
  {
    "USUBJID": "001-065",
    "ARM": "Drug A 200 mg QD",
    "ARMCD": "A200QD",
    "ACTARM": "Drug A 200 mg QD",
    "ACTARMCD": "A200QD",
    "TRT01P": "Drug A 200 mg QD",
    "TRT01A": "Drug A 200 mg QD",
    "RANDDT": "2024-06-05",
    "TRTSDT": "2024-06-05",
    "TRTENDT": "2024-11-04",
    "STUDYID": "ONCOLOGY-001",
    "AVISIT": "Visit 2",
    "AVISITN": 2,
    "ADY": 36,
    "TRLOC": "liver",
    "TRGRPID": "T03",
    "TRLNKID": "T03",
    "TRTESTCD": "LDIAM",
    "TRTEST": "Longest Diameter",
    "TRORRES": "0.7",
    "TRORRESU": "cm",
    "TRSTRESN": 0.6595,
    "TRSTRESU": "cm"
  },
  {
    "USUBJID": "001-065",
    "ARM": "Drug A 200 mg QD",
    "ARMCD": "A200QD",
    "ACTARM": "Drug A 200 mg QD",
    "ACTARMCD": "A200QD",
    "TRT01P": "Drug A 200 mg QD",
    "TRT01A": "Drug A 200 mg QD",
    "RANDDT": "2024-06-05",
    "TRTSDT": "2024-06-05",
    "TRTENDT": "2024-11-04",
    "STUDYID": "ONCOLOGY-001",
    "AVISIT": "Visit 2",
    "AVISITN": 2,
    "ADY": 36,
    "TRLOC": "lung",
    "TRGRPID": "T06",
    "TRLNKID": "T06",
    "TRTESTCD": "LDIAM",
    "TRTEST": "Longest Diameter",
    "TRORRES": "0.8",
    "TRORRESU": "cm",
    "TRSTRESN": 0.7742,
    "TRSTRESU": "cm"
  },
  {
    "USUBJID": "001-065",
    "ARM": "Drug A 200 mg QD",
    "ARMCD": "A200QD",
    "ACTARM": "Drug A 200 mg QD",
    "ACTARMCD": "A200QD",
    "TRT01P": "Drug A 200 mg QD",
    "TRT01A": "Drug A 200 mg QD",
    "RANDDT": "2024-06-05",
    "TRTSDT": "2024-06-05",
    "TRTENDT": "2024-11-04",
    "STUDYID": "ONCOLOGY-001",
    "AVISIT": "Visit 2",
    "AVISITN": 2,
    "ADY": 36,
    "TRLOC": "lung",
    "TRGRPID": "T07",
    "TRLNKID": "T07",
    "TRTESTCD": "LDIAM",
    "TRTEST": "Longest Diameter",
    "TRORRES": "0.5",
    "TRORRESU": "cm",
    "TRSTRESN": 0.5448,
    "TRSTRESU": "cm"
  },
  {
    "USUBJID": "001-065",
    "ARM": "Drug A 200 mg QD",
    "ARMCD": "A200QD",
    "ACTARM": "Drug A 200 mg QD",
    "ACTARMCD": "A200QD",
    "TRT01P": "Drug A 200 mg QD",
    "TRT01A": "Drug A 200 mg QD",
    "RANDDT": "2024-06-05",
    "TRTSDT": "2024-06-05",
    "TRTENDT": "2024-11-04",
    "STUDYID": "ONCOLOGY-001",
    "AVISIT": "Visit 3",
    "AVISITN": 3,
    "ADY": 91,
    "TRLOC": "liver",
    "TRGRPID": "T01",
    "TRLNKID": "T01",
    "TRTESTCD": "LDIAM",
    "TRTEST": "Longest Diameter",
    "TRORRES": "1.1",
    "TRORRESU": "cm",
    "TRSTRESN": 1.0881,
    "TRSTRESU": "cm"
  },
  {
    "USUBJID": "001-065",
    "ARM": "Drug A 200 mg QD",
    "ARMCD": "A200QD",
    "ACTARM": "Drug A 200 mg QD",
    "ACTARMCD": "A200QD",
    "TRT01P": "Drug A 200 mg QD",
    "TRT01A": "Drug A 200 mg QD",
    "RANDDT": "2024-06-05",
    "TRTSDT": "2024-06-05",
    "TRTENDT": "2024-11-04",
    "STUDYID": "ONCOLOGY-001",
    "AVISIT": "Visit 3",
    "AVISITN": 3,
    "ADY": 91,
    "TRLOC": "liver",
    "TRGRPID": "T02",
    "TRLNKID": "T02",
    "TRTESTCD": "LDIAM",
    "TRTEST": "Longest Diameter",
    "TRORRES": "0.9",
    "TRORRESU": "cm",
    "TRSTRESN": 0.8705,
    "TRSTRESU": "cm"
  },
  {
    "USUBJID": "001-065",
    "ARM": "Drug A 200 mg QD",
    "ARMCD": "A200QD",
    "ACTARM": "Drug A 200 mg QD",
    "ACTARMCD": "A200QD",
    "TRT01P": "Drug A 200 mg QD",
    "TRT01A": "Drug A 200 mg QD",
    "RANDDT": "2024-06-05",
    "TRTSDT": "2024-06-05",
    "TRTENDT": "2024-11-04",
    "STUDYID": "ONCOLOGY-001",
    "AVISIT": "Visit 3",
    "AVISITN": 3,
    "ADY": 91,
    "TRLOC": "liver",
    "TRGRPID": "T03.1",
    "TRLNKID": "T03.1",
    "TRTESTCD": "LDIAM",
    "TRTEST": "Longest Diameter",
    "TRORRES": "0.4",
    "TRORRESU": "cm",
    "TRSTRESN": 0.3536,
    "TRSTRESU": "cm"
  },
  {
    "USUBJID": "001-065",
    "ARM": "Drug A 200 mg QD",
    "ARMCD": "A200QD",
    "ACTARM": "Drug A 200 mg QD",
    "ACTARMCD": "A200QD",
    "TRT01P": "Drug A 200 mg QD",
    "TRT01A": "Drug A 200 mg QD",
    "RANDDT": "2024-06-05",
    "TRTSDT": "2024-06-05",
    "TRTENDT": "2024-11-04",
    "STUDYID": "ONCOLOGY-001",
    "AVISIT": "Visit 3",
    "AVISITN": 3,
    "ADY": 91,
    "TRLOC": "liver",
    "TRGRPID": "T03.2",
    "TRLNKID": "T03.2",
    "TRTESTCD": "LDIAM",
    "TRTEST": "Longest Diameter",
    "TRORRES": "0.3",
    "TRORRESU": "cm",
    "TRSTRESN": 0.3264,
    "TRSTRESU": "cm"
  },
  {
    "USUBJID": "001-065",
    "ARM": "Drug A 200 mg QD",
    "ARMCD": "A200QD",
    "ACTARM": "Drug A 200 mg QD",
    "ACTARMCD": "A200QD",
    "TRT01P": "Drug A 200 mg QD",
    "TRT01A": "Drug A 200 mg QD",
    "RANDDT": "2024-06-05",
    "TRTSDT": "2024-06-05",
    "TRTENDT": "2024-11-04",
    "STUDYID": "ONCOLOGY-001",
    "AVISIT": "Visit 3",
    "AVISITN": 3,
    "ADY": 91,
    "TRLOC": "lung",
    "TRGRPID": "T06",
    "TRLNKID": "T06",
    "TRTESTCD": "LDIAM",
    "TRTEST": "Longest Diameter",
    "TRORRES": "0.8",
    "TRORRESU": "cm",
    "TRSTRESN": 0.7889,
    "TRSTRESU": "cm"
  },
  {
    "USUBJID": "001-065",
    "ARM": "Drug A 200 mg QD",
    "ARMCD": "A200QD",
    "ACTARM": "Drug A 200 mg QD",
    "ACTARMCD": "A200QD",
    "TRT01P": "Drug A 200 mg QD",
    "TRT01A": "Drug A 200 mg QD",
    "RANDDT": "2024-06-05",
    "TRTSDT": "2024-06-05",
    "TRTENDT": "2024-11-04",
    "STUDYID": "ONCOLOGY-001",
    "AVISIT": "Visit 3",
    "AVISITN": 3,
    "ADY": 91,
    "TRLOC": "lung",
    "TRGRPID": "T07",
    "TRLNKID": "T07",
    "TRTESTCD": "LDIAM",
    "TRTEST": "Longest Diameter",
    "TRORRES": "0.5",
    "TRORRESU": "cm",
    "TRSTRESN": 0.544,
    "TRSTRESU": "cm"
  },
  {
    "USUBJID": "001-070",
    "ARM": "Drug B 100 mg BID",
    "ARMCD": "B100BID",
    "ACTARM": "Drug B 100 mg BID",
    "ACTARMCD": "B100BID",
    "TRT01P": "Drug B 100 mg BID",
    "TRT01A": "Drug B 100 mg BID",
    "RANDDT": "2024-06-11",
    "TRTSDT": "2024-06-11",
    "TRTENDT": "2024-11-28",
    "STUDYID": "ONCOLOGY-001",
    "AVISIT": "Visit 1",
    "AVISITN": 1,
    "ADY": 0,
    "TRLOC": "brain",
    "TRGRPID": "T10",
    "TRLNKID": "T10",
    "TRTESTCD": "LDIAM",
    "TRTEST": "Longest Diameter",
    "TRORRES": "1.2",
    "TRORRESU": "cm",
    "TRSTRESN": 1.1666,
    "TRSTRESU": "cm"
  },
  {
    "USUBJID": "001-070",
    "ARM": "Drug B 100 mg BID",
    "ARMCD": "B100BID",
    "ACTARM": "Drug B 100 mg BID",
    "ACTARMCD": "B100BID",
    "TRT01P": "Drug B 100 mg BID",
    "TRT01A": "Drug B 100 mg BID",
    "RANDDT": "2024-06-11",
    "TRTSDT": "2024-06-11",
    "TRTENDT": "2024-11-28",
    "STUDYID": "ONCOLOGY-001",
    "AVISIT": "Visit 1",
    "AVISITN": 1,
    "ADY": 0,
    "TRLOC": "kidney",
    "TRGRPID": "T20",
    "TRLNKID": "T20",
    "TRTESTCD": "LDIAM",
    "TRTEST": "Longest Diameter",
    "TRORRES": "2.1",
    "TRORRESU": "cm",
    "TRSTRESN": 2.1387,
    "TRSTRESU": "cm"
  },
  {
    "USUBJID": "001-070",
    "ARM": "Drug B 100 mg BID",
    "ARMCD": "B100BID",
    "ACTARM": "Drug B 100 mg BID",
    "ACTARMCD": "B100BID",
    "TRT01P": "Drug B 100 mg BID",
    "TRT01A": "Drug B 100 mg BID",
    "RANDDT": "2024-06-11",
    "TRTSDT": "2024-06-11",
    "TRTENDT": "2024-11-28",
    "STUDYID": "ONCOLOGY-001",
    "AVISIT": "Visit 1",
    "AVISITN": 1,
    "ADY": 0,
    "TRLOC": "kidney",
    "TRGRPID": "T21",
    "TRLNKID": "T21",
    "TRTESTCD": "LDIAM",
    "TRTEST": "Longest Diameter",
    "TRORRES": "1.6",
    "TRORRESU": "cm",
    "TRSTRESN": 1.5554,
    "TRSTRESU": "cm"
  },
  {
    "USUBJID": "001-070",
    "ARM": "Drug B 100 mg BID",
    "ARMCD": "B100BID",
    "ACTARM": "Drug B 100 mg BID",
    "ACTARMCD": "B100BID",
    "TRT01P": "Drug B 100 mg BID",
    "TRT01A": "Drug B 100 mg BID",
    "RANDDT": "2024-06-11",
    "TRTSDT": "2024-06-11",
    "TRTENDT": "2024-11-28",
    "STUDYID": "ONCOLOGY-001",
    "AVISIT": "Visit 2",
    "AVISITN": 2,
    "ADY": 30,
    "TRLOC": "brain",
    "TRGRPID": "T10",
    "TRLNKID": "T10",
    "TRTESTCD": "LDIAM",
    "TRTEST": "Longest Diameter",
    "TRORRES": "1.2",
    "TRORRESU": "cm",
    "TRSTRESN": 1.2281,
    "TRSTRESU": "cm"
  },
  {
    "USUBJID": "001-070",
    "ARM": "Drug B 100 mg BID",
    "ARMCD": "B100BID",
    "ACTARM": "Drug B 100 mg BID",
    "ACTARMCD": "B100BID",
    "TRT01P": "Drug B 100 mg BID",
    "TRT01A": "Drug B 100 mg BID",
    "RANDDT": "2024-06-11",
    "TRTSDT": "2024-06-11",
    "TRTENDT": "2024-11-28",
    "STUDYID": "ONCOLOGY-001",
    "AVISIT": "Visit 2",
    "AVISITN": 2,
    "ADY": 30,
    "TRLOC": "kidney",
    "TRGRPID": "T20",
    "TRLNKID": "T20",
    "TRTESTCD": "LDIAM",
    "TRTEST": "Longest Diameter",
    "TRORRES": "2.3",
    "TRORRESU": "cm",
    "TRSTRESN": 2.2672,
    "TRSTRESU": "cm"
  },
  {
    "USUBJID": "001-070",
    "ARM": "Drug B 100 mg BID",
    "ARMCD": "B100BID",
    "ACTARM": "Drug B 100 mg BID",
    "ACTARMCD": "B100BID",
    "TRT01P": "Drug B 100 mg BID",
    "TRT01A": "Drug B 100 mg BID",
    "RANDDT": "2024-06-11",
    "TRTSDT": "2024-06-11",
    "TRTENDT": "2024-11-28",
    "STUDYID": "ONCOLOGY-001",
    "AVISIT": "Visit 2",
    "AVISITN": 2,
    "ADY": 30,
    "TRLOC": "kidney",
    "TRGRPID": "T21",
    "TRLNKID": "T21",
    "TRTESTCD": "LDIAM",
    "TRTEST": "Longest Diameter",
    "TRORRES": "1.6",
    "TRORRESU": "cm",
    "TRSTRESN": 1.6059,
    "TRSTRESU": "cm"
  },
  {
    "USUBJID": "001-070",
    "ARM": "Drug B 100 mg BID",
    "ARMCD": "B100BID",
    "ACTARM": "Drug B 100 mg BID",
    "ACTARMCD": "B100BID",
    "TRT01P": "Drug B 100 mg BID",
    "TRT01A": "Drug B 100 mg BID",
    "RANDDT": "2024-06-11",
    "TRTSDT": "2024-06-11",
    "TRTENDT": "2024-11-28",
    "STUDYID": "ONCOLOGY-001",
    "AVISIT": "Visit 3",
    "AVISITN": 3,
    "ADY": 58,
    "TRLOC": "brain",
    "TRGRPID": "T10.1",
    "TRLNKID": "T10.1",
    "TRTESTCD": "LDIAM",
    "TRTEST": "Longest Diameter",
    "TRORRES": "0.0",
    "TRORRESU": "cm",
    "TRSTRESN": 0,
    "TRSTRESU": "cm"
  },
  {
    "USUBJID": "001-070",
    "ARM": "Drug B 100 mg BID",
    "ARMCD": "B100BID",
    "ACTARM": "Drug B 100 mg BID",
    "ACTARMCD": "B100BID",
    "TRT01P": "Drug B 100 mg BID",
    "TRT01A": "Drug B 100 mg BID",
    "RANDDT": "2024-06-11",
    "TRTSDT": "2024-06-11",
    "TRTENDT": "2024-11-28",
    "STUDYID": "ONCOLOGY-001",
    "AVISIT": "Visit 3",
    "AVISITN": 3,
    "ADY": 58,
    "TRLOC": "brain",
    "TRGRPID": "T10.2",
    "TRLNKID": "T10.2",
    "TRTESTCD": "LDIAM",
    "TRTEST": "Longest Diameter",
    "TRORRES": "0.0",
    "TRORRESU": "cm",
    "TRSTRESN": 0,
    "TRSTRESU": "cm"
  },
  {
    "USUBJID": "001-070",
    "ARM": "Drug B 100 mg BID",
    "ARMCD": "B100BID",
    "ACTARM": "Drug B 100 mg BID",
    "ACTARMCD": "B100BID",
    "TRT01P": "Drug B 100 mg BID",
    "TRT01A": "Drug B 100 mg BID",
    "RANDDT": "2024-06-11",
    "TRTSDT": "2024-06-11",
    "TRTENDT": "2024-11-28",
    "STUDYID": "ONCOLOGY-001",
    "AVISIT": "Visit 3",
    "AVISITN": 3,
    "ADY": 58,
    "TRLOC": "kidney",
    "TRGRPID": "T20",
    "TRLNKID": "T20",
    "TRTESTCD": "LDIAM",
    "TRTEST": "Longest Diameter",
    "TRORRES": "0.0",
    "TRORRESU": "cm",
    "TRSTRESN": 0,
    "TRSTRESU": "cm"
  },
  {
    "USUBJID": "001-070",
    "ARM": "Drug B 100 mg BID",
    "ARMCD": "B100BID",
    "ACTARM": "Drug B 100 mg BID",
    "ACTARMCD": "B100BID",
    "TRT01P": "Drug B 100 mg BID",
    "TRT01A": "Drug B 100 mg BID",
    "RANDDT": "2024-06-11",
    "TRTSDT": "2024-06-11",
    "TRTENDT": "2024-11-28",
    "STUDYID": "ONCOLOGY-001",
    "AVISIT": "Visit 3",
    "AVISITN": 3,
    "ADY": 58,
    "TRLOC": "kidney",
    "TRGRPID": "T21",
    "TRLNKID": "T21",
    "TRTESTCD": "LDIAM",
    "TRTEST": "Longest Diameter",
    "TRORRES": "0.0",
    "TRORRESU": "cm",
    "TRSTRESN": 0,
    "TRSTRESU": "cm"
  },
  {
    "USUBJID": "001-070",
    "ARM": "Drug B 100 mg BID",
    "ARMCD": "B100BID",
    "ACTARM": "Drug B 100 mg BID",
    "ACTARMCD": "B100BID",
    "TRT01P": "Drug B 100 mg BID",
    "TRT01A": "Drug B 100 mg BID",
    "RANDDT": "2024-06-11",
    "TRTSDT": "2024-06-11",
    "TRTENDT": "2024-11-28",
    "STUDYID": "ONCOLOGY-001",
    "AVISIT": "Visit 4",
    "AVISITN": 4,
    "ADY": 110,
    "TRLOC": "brain",
    "TRGRPID": "T10.1",
    "TRLNKID": "T10.1",
    "TRTESTCD": "LDIAM",
    "TRTEST": "Longest Diameter",
    "TRORRES": "0.0",
    "TRORRESU": "cm",
    "TRSTRESN": 0,
    "TRSTRESU": "cm"
  },
  {
    "USUBJID": "001-070",
    "ARM": "Drug B 100 mg BID",
    "ARMCD": "B100BID",
    "ACTARM": "Drug B 100 mg BID",
    "ACTARMCD": "B100BID",
    "TRT01P": "Drug B 100 mg BID",
    "TRT01A": "Drug B 100 mg BID",
    "RANDDT": "2024-06-11",
    "TRTSDT": "2024-06-11",
    "TRTENDT": "2024-11-28",
    "STUDYID": "ONCOLOGY-001",
    "AVISIT": "Visit 4",
    "AVISITN": 4,
    "ADY": 110,
    "TRLOC": "brain",
    "TRGRPID": "T10.2",
    "TRLNKID": "T10.2",
    "TRTESTCD": "LDIAM",
    "TRTEST": "Longest Diameter",
    "TRORRES": "0.0",
    "TRORRESU": "cm",
    "TRSTRESN": 0,
    "TRSTRESU": "cm"
  },
  {
    "USUBJID": "001-070",
    "ARM": "Drug B 100 mg BID",
    "ARMCD": "B100BID",
    "ACTARM": "Drug B 100 mg BID",
    "ACTARMCD": "B100BID",
    "TRT01P": "Drug B 100 mg BID",
    "TRT01A": "Drug B 100 mg BID",
    "RANDDT": "2024-06-11",
    "TRTSDT": "2024-06-11",
    "TRTENDT": "2024-11-28",
    "STUDYID": "ONCOLOGY-001",
    "AVISIT": "Visit 4",
    "AVISITN": 4,
    "ADY": 110,
    "TRLOC": "kidney",
    "TRGRPID": "T20/T21",
    "TRLNKID": "T20/T21",
    "TRTESTCD": "LDIAM",
    "TRTEST": "Longest Diameter",
    "TRORRES": "0.0",
    "TRORRESU": "cm",
    "TRSTRESN": 0,
    "TRSTRESU": "cm"
  },
  {
    "USUBJID": "002-001",
    "ARM": "Drug B 100 mg BID",
    "ARMCD": "B100BID",
    "ACTARM": "Drug B 100 mg BID",
    "ACTARMCD": "B100BID",
    "TRT01P": "Drug B 100 mg BID",
    "TRT01A": "Drug B 100 mg BID",
    "RANDDT": "2024-03-17",
    "TRTSDT": "2024-03-17",
    "TRTENDT": "2024-09-02",
    "STUDYID": "ONCOLOGY-001",
    "AVISIT": "Visit 1",
    "AVISITN": 1,
    "ADY": 0,
    "TRLOC": "lung",
    "TRGRPID": "T06",
    "TRLNKID": "T06",
    "TRTESTCD": "LDIAM",
    "TRTEST": "Longest Diameter",
    "TRORRES": "2.5",
    "TRORRESU": "cm",
    "TRSTRESN": 2.5389,
    "TRSTRESU": "cm"
  },
  {
    "USUBJID": "002-001",
    "ARM": "Drug B 100 mg BID",
    "ARMCD": "B100BID",
    "ACTARM": "Drug B 100 mg BID",
    "ACTARMCD": "B100BID",
    "TRT01P": "Drug B 100 mg BID",
    "TRT01A": "Drug B 100 mg BID",
    "RANDDT": "2024-03-17",
    "TRTSDT": "2024-03-17",
    "TRTENDT": "2024-09-02",
    "STUDYID": "ONCOLOGY-001",
    "AVISIT": "Visit 1",
    "AVISITN": 1,
    "ADY": 0,
    "TRLOC": "lung",
    "TRGRPID": "T07",
    "TRLNKID": "T07",
    "TRTESTCD": "LDIAM",
    "TRTEST": "Longest Diameter",
    "TRORRES": "1.8",
    "TRORRESU": "cm",
    "TRSTRESN": 1.828,
    "TRSTRESU": "cm"
  },
  {
    "USUBJID": "002-001",
    "ARM": "Drug B 100 mg BID",
    "ARMCD": "B100BID",
    "ACTARM": "Drug B 100 mg BID",
    "ACTARMCD": "B100BID",
    "TRT01P": "Drug B 100 mg BID",
    "TRT01A": "Drug B 100 mg BID",
    "RANDDT": "2024-03-17",
    "TRTSDT": "2024-03-17",
    "TRTENDT": "2024-09-02",
    "STUDYID": "ONCOLOGY-001",
    "AVISIT": "Visit 2",
    "AVISITN": 2,
    "ADY": 53,
    "TRLOC": "lung",
    "TRGRPID": "T06",
    "TRLNKID": "T06",
    "TRTESTCD": "LDIAM",
    "TRTEST": "Longest Diameter",
    "TRORRES": "2.7",
    "TRORRESU": "cm",
    "TRSTRESN": 2.6748,
    "TRSTRESU": "cm"
  },
  {
    "USUBJID": "002-001",
    "ARM": "Drug B 100 mg BID",
    "ARMCD": "B100BID",
    "ACTARM": "Drug B 100 mg BID",
    "ACTARMCD": "B100BID",
    "TRT01P": "Drug B 100 mg BID",
    "TRT01A": "Drug B 100 mg BID",
    "RANDDT": "2024-03-17",
    "TRTSDT": "2024-03-17",
    "TRTENDT": "2024-09-02",
    "STUDYID": "ONCOLOGY-001",
    "AVISIT": "Visit 2",
    "AVISITN": 2,
    "ADY": 53,
    "TRLOC": "lung",
    "TRGRPID": "T07",
    "TRLNKID": "T07",
    "TRTESTCD": "LDIAM",
    "TRTEST": "Longest Diameter",
    "TRORRES": "1.9",
    "TRORRESU": "cm",
    "TRSTRESN": 1.8822,
    "TRSTRESU": "cm"
  },
  {
    "USUBJID": "002-001",
    "ARM": "Drug B 100 mg BID",
    "ARMCD": "B100BID",
    "ACTARM": "Drug B 100 mg BID",
    "ACTARMCD": "B100BID",
    "TRT01P": "Drug B 100 mg BID",
    "TRT01A": "Drug B 100 mg BID",
    "RANDDT": "2024-03-17",
    "TRTSDT": "2024-03-17",
    "TRTENDT": "2024-09-02",
    "STUDYID": "ONCOLOGY-001",
    "AVISIT": "Visit 3",
    "AVISITN": 3,
    "ADY": 87,
    "TRLOC": "lung",
    "TRGRPID": "T06",
    "TRLNKID": "T06",
    "TRTESTCD": "LDIAM",
    "TRTEST": "Longest Diameter",
    "TRORRES": "2.7",
    "TRORRESU": "cm",
    "TRSTRESN": 2.7387,
    "TRSTRESU": "cm"
  },
  {
    "USUBJID": "002-001",
    "ARM": "Drug B 100 mg BID",
    "ARMCD": "B100BID",
    "ACTARM": "Drug B 100 mg BID",
    "ACTARMCD": "B100BID",
    "TRT01P": "Drug B 100 mg BID",
    "TRT01A": "Drug B 100 mg BID",
    "RANDDT": "2024-03-17",
    "TRTSDT": "2024-03-17",
    "TRTENDT": "2024-09-02",
    "STUDYID": "ONCOLOGY-001",
    "AVISIT": "Visit 3",
    "AVISITN": 3,
    "ADY": 87,
    "TRLOC": "lung",
    "TRGRPID": "T07",
    "TRLNKID": "T07",
    "TRTESTCD": "LDIAM",
    "TRTEST": "Longest Diameter",
    "TRORRES": "1.9",
    "TRORRESU": "cm",
    "TRSTRESN": 1.8888,
    "TRSTRESU": "cm"
  },
  {
    "USUBJID": "002-001",
    "ARM": "Drug B 100 mg BID",
    "ARMCD": "B100BID",
    "ACTARM": "Drug B 100 mg BID",
    "ACTARMCD": "B100BID",
    "TRT01P": "Drug B 100 mg BID",
    "TRT01A": "Drug B 100 mg BID",
    "RANDDT": "2024-03-17",
    "TRTSDT": "2024-03-17",
    "TRTENDT": "2024-09-02",
    "STUDYID": "ONCOLOGY-001",
    "AVISIT": "Visit 4",
    "AVISITN": 4,
    "ADY": 118,
    "TRLOC": "lung",
    "TRGRPID": "T06/T07",
    "TRLNKID": "T06/T07",
    "TRTESTCD": "LDIAM",
    "TRTEST": "Longest Diameter",
    "TRORRES": "3.1",
    "TRORRESU": "cm",
    "TRSTRESN": 3.1449,
    "TRSTRESU": "cm"
  },
  {
    "USUBJID": "002-001",
    "ARM": "Drug B 100 mg BID",
    "ARMCD": "B100BID",
    "ACTARM": "Drug B 100 mg BID",
    "ACTARMCD": "B100BID",
    "TRT01P": "Drug B 100 mg BID",
    "TRT01A": "Drug B 100 mg BID",
    "RANDDT": "2024-03-17",
    "TRTSDT": "2024-03-17",
    "TRTENDT": "2024-09-02",
    "STUDYID": "ONCOLOGY-001",
    "AVISIT": "Visit 5",
    "AVISITN": 5,
    "ADY": 144,
    "TRLOC": "lung",
    "TRGRPID": "T06/T07",
    "TRLNKID": "T06/T07",
    "TRTESTCD": "LDIAM",
    "TRTEST": "Longest Diameter",
    "TRORRES": "2.3",
    "TRORRESU": "cm",
    "TRSTRESN": 2.2948,
    "TRSTRESU": "cm"
  },
  {
    "USUBJID": "002-001",
    "ARM": "Drug B 100 mg BID",
    "ARMCD": "B100BID",
    "ACTARM": "Drug B 100 mg BID",
    "ACTARMCD": "B100BID",
    "TRT01P": "Drug B 100 mg BID",
    "TRT01A": "Drug B 100 mg BID",
    "RANDDT": "2024-03-17",
    "TRTSDT": "2024-03-17",
    "TRTENDT": "2024-09-02",
    "STUDYID": "ONCOLOGY-001",
    "AVISIT": "Visit 6",
    "AVISITN": 6,
    "ADY": 196,
    "TRLOC": "lung",
    "TRGRPID": "T06/T07",
    "TRLNKID": "T06/T07",
    "TRTESTCD": "LDIAM",
    "TRTEST": "Longest Diameter",
    "TRORRES": "1.6",
    "TRORRESU": "cm",
    "TRSTRESN": 1.6073,
    "TRSTRESU": "cm"
  },
  {
    "USUBJID": "002-001",
    "ARM": "Drug B 100 mg BID",
    "ARMCD": "B100BID",
    "ACTARM": "Drug B 100 mg BID",
    "ACTARMCD": "B100BID",
    "TRT01P": "Drug B 100 mg BID",
    "TRT01A": "Drug B 100 mg BID",
    "RANDDT": "2024-03-17",
    "TRTSDT": "2024-03-17",
    "TRTENDT": "2024-09-02",
    "STUDYID": "ONCOLOGY-001",
    "AVISIT": "Visit 7",
    "AVISITN": 7,
    "ADY": 228,
    "TRLOC": "lung",
    "TRGRPID": "T06/T07",
    "TRLNKID": "T06/T07",
    "TRTESTCD": "LDIAM",
    "TRTEST": "Longest Diameter",
    "TRORRES": "1.6",
    "TRORRESU": "cm",
    "TRSTRESN": 1.6054,
    "TRSTRESU": "cm"
  },
  {
    "USUBJID": "002-002",
    "ARM": "Drug A 200 mg QD",
    "ARMCD": "A200QD",
    "ACTARM": "Drug A 200 mg QD",
    "ACTARMCD": "A200QD",
    "TRT01P": "Drug A 200 mg QD",
    "TRT01A": "Drug A 200 mg QD",
    "RANDDT": "2024-04-15",
    "TRTSDT": "2024-04-15",
    "TRTENDT": "2025-04-03",
    "STUDYID": "ONCOLOGY-001",
    "AVISIT": "Visit 1",
    "AVISITN": 1,
    "ADY": 0,
    "TRLOC": "liver",
    "TRGRPID": "T01",
    "TRLNKID": "T01",
    "TRTESTCD": "LDIAM",
    "TRTEST": "Longest Diameter",
    "TRORRES": "3.8",
    "TRORRESU": "cm",
    "TRSTRESN": 3.7569,
    "TRSTRESU": "cm"
  },
  {
    "USUBJID": "002-002",
    "ARM": "Drug A 200 mg QD",
    "ARMCD": "A200QD",
    "ACTARM": "Drug A 200 mg QD",
    "ACTARMCD": "A200QD",
    "TRT01P": "Drug A 200 mg QD",
    "TRT01A": "Drug A 200 mg QD",
    "RANDDT": "2024-04-15",
    "TRTSDT": "2024-04-15",
    "TRTENDT": "2025-04-03",
    "STUDYID": "ONCOLOGY-001",
    "AVISIT": "Visit 1",
    "AVISITN": 1,
    "ADY": 0,
    "TRLOC": "liver",
    "TRGRPID": "T02",
    "TRLNKID": "T02",
    "TRTESTCD": "LDIAM",
    "TRTEST": "Longest Diameter",
    "TRORRES": "3.0",
    "TRORRESU": "cm",
    "TRSTRESN": 3.0055,
    "TRSTRESU": "cm"
  },
  {
    "USUBJID": "002-002",
    "ARM": "Drug A 200 mg QD",
    "ARMCD": "A200QD",
    "ACTARM": "Drug A 200 mg QD",
    "ACTARMCD": "A200QD",
    "TRT01P": "Drug A 200 mg QD",
    "TRT01A": "Drug A 200 mg QD",
    "RANDDT": "2024-04-15",
    "TRTSDT": "2024-04-15",
    "TRTENDT": "2025-04-03",
    "STUDYID": "ONCOLOGY-001",
    "AVISIT": "Visit 1",
    "AVISITN": 1,
    "ADY": 0,
    "TRLOC": "liver",
    "TRGRPID": "T03",
    "TRLNKID": "T03",
    "TRTESTCD": "LDIAM",
    "TRTEST": "Longest Diameter",
    "TRORRES": "2.3",
    "TRORRESU": "cm",
    "TRSTRESN": 2.2542,
    "TRSTRESU": "cm"
  },
  {
    "USUBJID": "002-002",
    "ARM": "Drug A 200 mg QD",
    "ARMCD": "A200QD",
    "ACTARM": "Drug A 200 mg QD",
    "ACTARMCD": "A200QD",
    "TRT01P": "Drug A 200 mg QD",
    "TRT01A": "Drug A 200 mg QD",
    "RANDDT": "2024-04-15",
    "TRTSDT": "2024-04-15",
    "TRTENDT": "2025-04-03",
    "STUDYID": "ONCOLOGY-001",
    "AVISIT": "Visit 2",
    "AVISITN": 2,
    "ADY": 43,
    "TRLOC": "liver",
    "TRGRPID": "T01",
    "TRLNKID": "T01",
    "TRTESTCD": "LDIAM",
    "TRTEST": "Longest Diameter",
    "TRORRES": "4.0",
    "TRORRESU": "cm",
    "TRSTRESN": 3.9575,
    "TRSTRESU": "cm"
  },
  {
    "USUBJID": "002-002",
    "ARM": "Drug A 200 mg QD",
    "ARMCD": "A200QD",
    "ACTARM": "Drug A 200 mg QD",
    "ACTARMCD": "A200QD",
    "TRT01P": "Drug A 200 mg QD",
    "TRT01A": "Drug A 200 mg QD",
    "RANDDT": "2024-04-15",
    "TRTSDT": "2024-04-15",
    "TRTENDT": "2025-04-03",
    "STUDYID": "ONCOLOGY-001",
    "AVISIT": "Visit 2",
    "AVISITN": 2,
    "ADY": 43,
    "TRLOC": "liver",
    "TRGRPID": "T02",
    "TRLNKID": "T02",
    "TRTESTCD": "LDIAM",
    "TRTEST": "Longest Diameter",
    "TRORRES": "3.1",
    "TRORRESU": "cm",
    "TRSTRESN": 3.1244,
    "TRSTRESU": "cm"
  },
  {
    "USUBJID": "002-002",
    "ARM": "Drug A 200 mg QD",
    "ARMCD": "A200QD",
    "ACTARM": "Drug A 200 mg QD",
    "ACTARMCD": "A200QD",
    "TRT01P": "Drug A 200 mg QD",
    "TRT01A": "Drug A 200 mg QD",
    "RANDDT": "2024-04-15",
    "TRTSDT": "2024-04-15",
    "TRTENDT": "2025-04-03",
    "STUDYID": "ONCOLOGY-001",
    "AVISIT": "Visit 2",
    "AVISITN": 2,
    "ADY": 43,
    "TRLOC": "liver",
    "TRGRPID": "T03",
    "TRLNKID": "T03",
    "TRTESTCD": "LDIAM",
    "TRTEST": "Longest Diameter",
    "TRORRES": "2.4",
    "TRORRESU": "cm",
    "TRSTRESN": 2.3954,
    "TRSTRESU": "cm"
  },
  {
    "USUBJID": "002-002",
    "ARM": "Drug A 200 mg QD",
    "ARMCD": "A200QD",
    "ACTARM": "Drug A 200 mg QD",
    "ACTARMCD": "A200QD",
    "TRT01P": "Drug A 200 mg QD",
    "TRT01A": "Drug A 200 mg QD",
    "RANDDT": "2024-04-15",
    "TRTSDT": "2024-04-15",
    "TRTENDT": "2025-04-03",
    "STUDYID": "ONCOLOGY-001",
    "AVISIT": "Visit 2",
    "AVISITN": 2,
    "ADY": 43,
    "TRLOC": "liver",
    "TRGRPID": "T04",
    "TRLNKID": "T04",
    "TRTESTCD": "LDIAM",
    "TRTEST": "Longest Diameter",
    "TRORRES": "1.9",
    "TRORRESU": "cm",
    "TRSTRESN": 1.8746,
    "TRSTRESU": "cm"
  },
  {
    "USUBJID": "002-002",
    "ARM": "Drug A 200 mg QD",
    "ARMCD": "A200QD",
    "ACTARM": "Drug A 200 mg QD",
    "ACTARMCD": "A200QD",
    "TRT01P": "Drug A 200 mg QD",
    "TRT01A": "Drug A 200 mg QD",
    "RANDDT": "2024-04-15",
    "TRTSDT": "2024-04-15",
    "TRTENDT": "2025-04-03",
    "STUDYID": "ONCOLOGY-001",
    "AVISIT": "Visit 3",
    "AVISITN": 3,
    "ADY": 99,
    "TRLOC": "liver",
    "TRGRPID": "T01",
    "TRLNKID": "T01",
    "TRTESTCD": "LDIAM",
    "TRTEST": "Longest Diameter",
    "TRORRES": "4.4",
    "TRORRESU": "cm",
    "TRSTRESN": 4.4092,
    "TRSTRESU": "cm"
  },
  {
    "USUBJID": "002-002",
    "ARM": "Drug A 200 mg QD",
    "ARMCD": "A200QD",
    "ACTARM": "Drug A 200 mg QD",
    "ACTARMCD": "A200QD",
    "TRT01P": "Drug A 200 mg QD",
    "TRT01A": "Drug A 200 mg QD",
    "RANDDT": "2024-04-15",
    "TRTSDT": "2024-04-15",
    "TRTENDT": "2025-04-03",
    "STUDYID": "ONCOLOGY-001",
    "AVISIT": "Visit 3",
    "AVISITN": 3,
    "ADY": 99,
    "TRLOC": "liver",
    "TRGRPID": "T02",
    "TRLNKID": "T02",
    "TRTESTCD": "LDIAM",
    "TRTEST": "Longest Diameter",
    "TRORRES": "3.5",
    "TRORRESU": "cm",
    "TRSTRESN": 3.5273,
    "TRSTRESU": "cm"
  },
  {
    "USUBJID": "002-002",
    "ARM": "Drug A 200 mg QD",
    "ARMCD": "A200QD",
    "ACTARM": "Drug A 200 mg QD",
    "ACTARMCD": "A200QD",
    "TRT01P": "Drug A 200 mg QD",
    "TRT01A": "Drug A 200 mg QD",
    "RANDDT": "2024-04-15",
    "TRTSDT": "2024-04-15",
    "TRTENDT": "2025-04-03",
    "STUDYID": "ONCOLOGY-001",
    "AVISIT": "Visit 3",
    "AVISITN": 3,
    "ADY": 99,
    "TRLOC": "liver",
    "TRGRPID": "T03.1",
    "TRLNKID": "T03.1",
    "TRTESTCD": "LDIAM",
    "TRTEST": "Longest Diameter",
    "TRORRES": "1.4",
    "TRORRESU": "cm",
    "TRSTRESN": 1.433,
    "TRSTRESU": "cm"
  },
  {
    "USUBJID": "002-002",
    "ARM": "Drug A 200 mg QD",
    "ARMCD": "A200QD",
    "ACTARM": "Drug A 200 mg QD",
    "ACTARMCD": "A200QD",
    "TRT01P": "Drug A 200 mg QD",
    "TRT01A": "Drug A 200 mg QD",
    "RANDDT": "2024-04-15",
    "TRTSDT": "2024-04-15",
    "TRTENDT": "2025-04-03",
    "STUDYID": "ONCOLOGY-001",
    "AVISIT": "Visit 3",
    "AVISITN": 3,
    "ADY": 99,
    "TRLOC": "liver",
    "TRGRPID": "T03.2",
    "TRLNKID": "T03.2",
    "TRTESTCD": "LDIAM",
    "TRTEST": "Longest Diameter",
    "TRORRES": "1.3",
    "TRORRESU": "cm",
    "TRSTRESN": 1.3228,
    "TRSTRESU": "cm"
  },
  {
    "USUBJID": "002-002",
    "ARM": "Drug A 200 mg QD",
    "ARMCD": "A200QD",
    "ACTARM": "Drug A 200 mg QD",
    "ACTARMCD": "A200QD",
    "TRT01P": "Drug A 200 mg QD",
    "TRT01A": "Drug A 200 mg QD",
    "RANDDT": "2024-04-15",
    "TRTSDT": "2024-04-15",
    "TRTENDT": "2025-04-03",
    "STUDYID": "ONCOLOGY-001",
    "AVISIT": "Visit 3",
    "AVISITN": 3,
    "ADY": 99,
    "TRLOC": "liver",
    "TRGRPID": "T04",
    "TRLNKID": "T04",
    "TRTESTCD": "LDIAM",
    "TRTEST": "Longest Diameter",
    "TRORRES": "2.1",
    "TRORRESU": "cm",
    "TRSTRESN": 2.0944,
    "TRSTRESU": "cm"
  },
  {
    "USUBJID": "002-002",
    "ARM": "Drug A 200 mg QD",
    "ARMCD": "A200QD",
    "ACTARM": "Drug A 200 mg QD",
    "ACTARMCD": "A200QD",
    "TRT01P": "Drug A 200 mg QD",
    "TRT01A": "Drug A 200 mg QD",
    "RANDDT": "2024-04-15",
    "TRTSDT": "2024-04-15",
    "TRTENDT": "2025-04-03",
    "STUDYID": "ONCOLOGY-001",
    "AVISIT": "Visit 3",
    "AVISITN": 3,
    "ADY": 99,
    "TRLOC": "liver",
    "TRGRPID": "TN1",
    "TRLNKID": "TN1",
    "TRTESTCD": "LDIAM",
    "TRTEST": "Longest Diameter",
    "TRORRES": "0.9",
    "TRORRESU": "cm",
    "TRSTRESN": 0.8722,
    "TRSTRESU": "cm"
  },
  {
    "USUBJID": "002-002",
    "ARM": "Drug A 200 mg QD",
    "ARMCD": "A200QD",
    "ACTARM": "Drug A 200 mg QD",
    "ACTARMCD": "A200QD",
    "TRT01P": "Drug A 200 mg QD",
    "TRT01A": "Drug A 200 mg QD",
    "RANDDT": "2024-04-15",
    "TRTSDT": "2024-04-15",
    "TRTENDT": "2025-04-03",
    "STUDYID": "ONCOLOGY-001",
    "AVISIT": "Visit 4",
    "AVISITN": 4,
    "ADY": 131,
    "TRLOC": "liver",
    "TRGRPID": "T01",
    "TRLNKID": "T01",
    "TRTESTCD": "LDIAM",
    "TRTEST": "Longest Diameter",
    "TRORRES": "4.9",
    "TRORRESU": "cm",
    "TRSTRESN": 4.8871,
    "TRSTRESU": "cm"
  },
  {
    "USUBJID": "002-002",
    "ARM": "Drug A 200 mg QD",
    "ARMCD": "A200QD",
    "ACTARM": "Drug A 200 mg QD",
    "ACTARMCD": "A200QD",
    "TRT01P": "Drug A 200 mg QD",
    "TRT01A": "Drug A 200 mg QD",
    "RANDDT": "2024-04-15",
    "TRTSDT": "2024-04-15",
    "TRTENDT": "2025-04-03",
    "STUDYID": "ONCOLOGY-001",
    "AVISIT": "Visit 4",
    "AVISITN": 4,
    "ADY": 131,
    "TRLOC": "liver",
    "TRGRPID": "T02",
    "TRLNKID": "T02",
    "TRTESTCD": "LDIAM",
    "TRTEST": "Longest Diameter",
    "TRORRES": "4.1",
    "TRORRESU": "cm",
    "TRSTRESN": 4.0726,
    "TRSTRESU": "cm"
  },
  {
    "USUBJID": "002-002",
    "ARM": "Drug A 200 mg QD",
    "ARMCD": "A200QD",
    "ACTARM": "Drug A 200 mg QD",
    "ACTARMCD": "A200QD",
    "TRT01P": "Drug A 200 mg QD",
    "TRT01A": "Drug A 200 mg QD",
    "RANDDT": "2024-04-15",
    "TRTSDT": "2024-04-15",
    "TRTENDT": "2025-04-03",
    "STUDYID": "ONCOLOGY-001",
    "AVISIT": "Visit 4",
    "AVISITN": 4,
    "ADY": 131,
    "TRLOC": "liver",
    "TRGRPID": "T03.1",
    "TRLNKID": "T03.1",
    "TRTESTCD": "LDIAM",
    "TRTEST": "Longest Diameter",
    "TRORRES": "1.7",
    "TRORRESU": "cm",
    "TRSTRESN": 1.7454,
    "TRSTRESU": "cm"
  },
  {
    "USUBJID": "002-002",
    "ARM": "Drug A 200 mg QD",
    "ARMCD": "A200QD",
    "ACTARM": "Drug A 200 mg QD",
    "ACTARMCD": "A200QD",
    "TRT01P": "Drug A 200 mg QD",
    "TRT01A": "Drug A 200 mg QD",
    "RANDDT": "2024-04-15",
    "TRTSDT": "2024-04-15",
    "TRTENDT": "2025-04-03",
    "STUDYID": "ONCOLOGY-001",
    "AVISIT": "Visit 4",
    "AVISITN": 4,
    "ADY": 131,
    "TRLOC": "liver",
    "TRGRPID": "T03.2",
    "TRLNKID": "T03.2",
    "TRTESTCD": "LDIAM",
    "TRTEST": "Longest Diameter",
    "TRORRES": "1.5",
    "TRORRESU": "cm",
    "TRSTRESN": 1.5127,
    "TRSTRESU": "cm"
  },
  {
    "USUBJID": "002-002",
    "ARM": "Drug A 200 mg QD",
    "ARMCD": "A200QD",
    "ACTARM": "Drug A 200 mg QD",
    "ACTARMCD": "A200QD",
    "TRT01P": "Drug A 200 mg QD",
    "TRT01A": "Drug A 200 mg QD",
    "RANDDT": "2024-04-15",
    "TRTSDT": "2024-04-15",
    "TRTENDT": "2025-04-03",
    "STUDYID": "ONCOLOGY-001",
    "AVISIT": "Visit 4",
    "AVISITN": 4,
    "ADY": 131,
    "TRLOC": "liver",
    "TRGRPID": "T04",
    "TRLNKID": "T04",
    "TRTESTCD": "LDIAM",
    "TRTEST": "Longest Diameter",
    "TRORRES": "2.3",
    "TRORRESU": "cm",
    "TRSTRESN": 2.3272,
    "TRSTRESU": "cm"
  },
  {
    "USUBJID": "002-002",
    "ARM": "Drug A 200 mg QD",
    "ARMCD": "A200QD",
    "ACTARM": "Drug A 200 mg QD",
    "ACTARMCD": "A200QD",
    "TRT01P": "Drug A 200 mg QD",
    "TRT01A": "Drug A 200 mg QD",
    "RANDDT": "2024-04-15",
    "TRTSDT": "2024-04-15",
    "TRTENDT": "2025-04-03",
    "STUDYID": "ONCOLOGY-001",
    "AVISIT": "Visit 4",
    "AVISITN": 4,
    "ADY": 131,
    "TRLOC": "liver",
    "TRGRPID": "TN1",
    "TRLNKID": "TN1",
    "TRTESTCD": "LDIAM",
    "TRTEST": "Longest Diameter",
    "TRORRES": "0.9",
    "TRORRESU": "cm",
    "TRSTRESN": 0.9417,
    "TRSTRESU": "cm"
  },
  {
    "USUBJID": "002-006",
    "ARM": "Drug A 200 mg QD",
    "ARMCD": "A200QD",
    "ACTARM": "Drug A 200 mg QD",
    "ACTARMCD": "A200QD",
    "TRT01P": "Drug A 200 mg QD",
    "TRT01A": "Drug A 200 mg QD",
    "RANDDT": "2024-03-12",
    "TRTSDT": "2024-03-12",
    "TRTENDT": "2025-02-21",
    "STUDYID": "ONCOLOGY-001",
    "AVISIT": "Visit 1",
    "AVISITN": 1,
    "ADY": 0,
    "TRLOC": "brain",
    "TRGRPID": "T10",
    "TRLNKID": "T10",
    "TRTESTCD": "LDIAM",
    "TRTEST": "Longest Diameter",
    "TRORRES": "2.0",
    "TRORRESU": "cm",
    "TRSTRESN": 1.969,
    "TRSTRESU": "cm"
  },
  {
    "USUBJID": "002-006",
    "ARM": "Drug A 200 mg QD",
    "ARMCD": "A200QD",
    "ACTARM": "Drug A 200 mg QD",
    "ACTARMCD": "A200QD",
    "TRT01P": "Drug A 200 mg QD",
    "TRT01A": "Drug A 200 mg QD",
    "RANDDT": "2024-03-12",
    "TRTSDT": "2024-03-12",
    "TRTENDT": "2025-02-21",
    "STUDYID": "ONCOLOGY-001",
    "AVISIT": "Visit 1",
    "AVISITN": 1,
    "ADY": 0,
    "TRLOC": "liver",
    "TRGRPID": "T01",
    "TRLNKID": "T01",
    "TRTESTCD": "LDIAM",
    "TRTEST": "Longest Diameter",
    "TRORRES": "5.7",
    "TRORRESU": "cm",
    "TRSTRESN": 5.7429,
    "TRSTRESU": "cm"
  },
  {
    "USUBJID": "002-006",
    "ARM": "Drug A 200 mg QD",
    "ARMCD": "A200QD",
    "ACTARM": "Drug A 200 mg QD",
    "ACTARMCD": "A200QD",
    "TRT01P": "Drug A 200 mg QD",
    "TRT01A": "Drug A 200 mg QD",
    "RANDDT": "2024-03-12",
    "TRTSDT": "2024-03-12",
    "TRTENDT": "2025-02-21",
    "STUDYID": "ONCOLOGY-001",
    "AVISIT": "Visit 1",
    "AVISITN": 1,
    "ADY": 0,
    "TRLOC": "liver",
    "TRGRPID": "T02",
    "TRLNKID": "T02",
    "TRTESTCD": "LDIAM",
    "TRTEST": "Longest Diameter",
    "TRORRES": "4.6",
    "TRORRESU": "cm",
    "TRSTRESN": 4.5943,
    "TRSTRESU": "cm"
  },
  {
    "USUBJID": "002-006",
    "ARM": "Drug A 200 mg QD",
    "ARMCD": "A200QD",
    "ACTARM": "Drug A 200 mg QD",
    "ACTARMCD": "A200QD",
    "TRT01P": "Drug A 200 mg QD",
    "TRT01A": "Drug A 200 mg QD",
    "RANDDT": "2024-03-12",
    "TRTSDT": "2024-03-12",
    "TRTENDT": "2025-02-21",
    "STUDYID": "ONCOLOGY-001",
    "AVISIT": "Visit 1",
    "AVISITN": 1,
    "ADY": 0,
    "TRLOC": "liver",
    "TRGRPID": "T03",
    "TRLNKID": "T03",
    "TRTESTCD": "LDIAM",
    "TRTEST": "Longest Diameter",
    "TRORRES": "3.4",
    "TRORRESU": "cm",
    "TRSTRESN": 3.4457,
    "TRSTRESU": "cm"
  },
  {
    "USUBJID": "002-006",
    "ARM": "Drug A 200 mg QD",
    "ARMCD": "A200QD",
    "ACTARM": "Drug A 200 mg QD",
    "ACTARMCD": "A200QD",
    "TRT01P": "Drug A 200 mg QD",
    "TRT01A": "Drug A 200 mg QD",
    "RANDDT": "2024-03-12",
    "TRTSDT": "2024-03-12",
    "TRTENDT": "2025-02-21",
    "STUDYID": "ONCOLOGY-001",
    "AVISIT": "Visit 2",
    "AVISITN": 2,
    "ADY": 41,
    "TRLOC": "brain",
    "TRGRPID": "T10",
    "TRLNKID": "T10",
    "TRTESTCD": "LDIAM",
    "TRTEST": "Longest Diameter",
    "TRORRES": "2.3",
    "TRORRESU": "cm",
    "TRSTRESN": 2.2654,
    "TRSTRESU": "cm"
  },
  {
    "USUBJID": "002-006",
    "ARM": "Drug A 200 mg QD",
    "ARMCD": "A200QD",
    "ACTARM": "Drug A 200 mg QD",
    "ACTARMCD": "A200QD",
    "TRT01P": "Drug A 200 mg QD",
    "TRT01A": "Drug A 200 mg QD",
    "RANDDT": "2024-03-12",
    "TRTSDT": "2024-03-12",
    "TRTENDT": "2025-02-21",
    "STUDYID": "ONCOLOGY-001",
    "AVISIT": "Visit 2",
    "AVISITN": 2,
    "ADY": 41,
    "TRLOC": "liver",
    "TRGRPID": "T01",
    "TRLNKID": "T01",
    "TRTESTCD": "LDIAM",
    "TRTEST": "Longest Diameter",
    "TRORRES": "6.6",
    "TRORRESU": "cm",
    "TRSTRESN": 6.622,
    "TRSTRESU": "cm"
  },
  {
    "USUBJID": "002-006",
    "ARM": "Drug A 200 mg QD",
    "ARMCD": "A200QD",
    "ACTARM": "Drug A 200 mg QD",
    "ACTARMCD": "A200QD",
    "TRT01P": "Drug A 200 mg QD",
    "TRT01A": "Drug A 200 mg QD",
    "RANDDT": "2024-03-12",
    "TRTSDT": "2024-03-12",
    "TRTENDT": "2025-02-21",
    "STUDYID": "ONCOLOGY-001",
    "AVISIT": "Visit 2",
    "AVISITN": 2,
    "ADY": 41,
    "TRLOC": "liver",
    "TRGRPID": "T02",
    "TRLNKID": "T02",
    "TRTESTCD": "LDIAM",
    "TRTEST": "Longest Diameter",
    "TRORRES": "5.2",
    "TRORRESU": "cm",
    "TRSTRESN": 5.2279,
    "TRSTRESU": "cm"
  },
  {
    "USUBJID": "002-006",
    "ARM": "Drug A 200 mg QD",
    "ARMCD": "A200QD",
    "ACTARM": "Drug A 200 mg QD",
    "ACTARMCD": "A200QD",
    "TRT01P": "Drug A 200 mg QD",
    "TRT01A": "Drug A 200 mg QD",
    "RANDDT": "2024-03-12",
    "TRTSDT": "2024-03-12",
    "TRTENDT": "2025-02-21",
    "STUDYID": "ONCOLOGY-001",
    "AVISIT": "Visit 2",
    "AVISITN": 2,
    "ADY": 41,
    "TRLOC": "liver",
    "TRGRPID": "T03",
    "TRLNKID": "T03",
    "TRTESTCD": "LDIAM",
    "TRTEST": "Longest Diameter",
    "TRORRES": "4.0",
    "TRORRESU": "cm",
    "TRSTRESN": 4.0081,
    "TRSTRESU": "cm"
  },
  {
    "USUBJID": "002-006",
    "ARM": "Drug A 200 mg QD",
    "ARMCD": "A200QD",
    "ACTARM": "Drug A 200 mg QD",
    "ACTARMCD": "A200QD",
    "TRT01P": "Drug A 200 mg QD",
    "TRT01A": "Drug A 200 mg QD",
    "RANDDT": "2024-03-12",
    "TRTSDT": "2024-03-12",
    "TRTENDT": "2025-02-21",
    "STUDYID": "ONCOLOGY-001",
    "AVISIT": "Visit 2",
    "AVISITN": 2,
    "ADY": 41,
    "TRLOC": "liver",
    "TRGRPID": "T04",
    "TRLNKID": "T04",
    "TRTESTCD": "LDIAM",
    "TRTEST": "Longest Diameter",
    "TRORRES": "3.1",
    "TRORRESU": "cm",
    "TRSTRESN": 3.1367,
    "TRSTRESU": "cm"
  },
  {
    "USUBJID": "002-006",
    "ARM": "Drug A 200 mg QD",
    "ARMCD": "A200QD",
    "ACTARM": "Drug A 200 mg QD",
    "ACTARMCD": "A200QD",
    "TRT01P": "Drug A 200 mg QD",
    "TRT01A": "Drug A 200 mg QD",
    "RANDDT": "2024-03-12",
    "TRTSDT": "2024-03-12",
    "TRTENDT": "2025-02-21",
    "STUDYID": "ONCOLOGY-001",
    "AVISIT": "Visit 3",
    "AVISITN": 3,
    "ADY": 67,
    "TRLOC": "brain",
    "TRGRPID": "T10.1",
    "TRLNKID": "T10.1",
    "TRTESTCD": "LDIAM",
    "TRTEST": "Longest Diameter",
    "TRORRES": "1.3",
    "TRORRESU": "cm",
    "TRSTRESN": 1.2747,
    "TRSTRESU": "cm"
  },
  {
    "USUBJID": "002-006",
    "ARM": "Drug A 200 mg QD",
    "ARMCD": "A200QD",
    "ACTARM": "Drug A 200 mg QD",
    "ACTARMCD": "A200QD",
    "TRT01P": "Drug A 200 mg QD",
    "TRT01A": "Drug A 200 mg QD",
    "RANDDT": "2024-03-12",
    "TRTSDT": "2024-03-12",
    "TRTENDT": "2025-02-21",
    "STUDYID": "ONCOLOGY-001",
    "AVISIT": "Visit 3",
    "AVISITN": 3,
    "ADY": 67,
    "TRLOC": "brain",
    "TRGRPID": "T10.2",
    "TRLNKID": "T10.2",
    "TRTESTCD": "LDIAM",
    "TRTEST": "Longest Diameter",
    "TRORRES": "1.1",
    "TRORRESU": "cm",
    "TRSTRESN": 1.0926,
    "TRSTRESU": "cm"
  },
  {
    "USUBJID": "002-006",
    "ARM": "Drug A 200 mg QD",
    "ARMCD": "A200QD",
    "ACTARM": "Drug A 200 mg QD",
    "ACTARMCD": "A200QD",
    "TRT01P": "Drug A 200 mg QD",
    "TRT01A": "Drug A 200 mg QD",
    "RANDDT": "2024-03-12",
    "TRTSDT": "2024-03-12",
    "TRTENDT": "2025-02-21",
    "STUDYID": "ONCOLOGY-001",
    "AVISIT": "Visit 3",
    "AVISITN": 3,
    "ADY": 67,
    "TRLOC": "brain",
    "TRGRPID": "T11",
    "TRLNKID": "T11",
    "TRTESTCD": "LDIAM",
    "TRTEST": "Longest Diameter",
    "TRORRES": "1.1",
    "TRORRESU": "cm",
    "TRSTRESN": 1.0926,
    "TRSTRESU": "cm"
  },
  {
    "USUBJID": "002-006",
    "ARM": "Drug A 200 mg QD",
    "ARMCD": "A200QD",
    "ACTARM": "Drug A 200 mg QD",
    "ACTARMCD": "A200QD",
    "TRT01P": "Drug A 200 mg QD",
    "TRT01A": "Drug A 200 mg QD",
    "RANDDT": "2024-03-12",
    "TRTSDT": "2024-03-12",
    "TRTENDT": "2025-02-21",
    "STUDYID": "ONCOLOGY-001",
    "AVISIT": "Visit 3",
    "AVISITN": 3,
    "ADY": 67,
    "TRLOC": "liver",
    "TRGRPID": "T01",
    "TRLNKID": "T01",
    "TRTESTCD": "LDIAM",
    "TRTEST": "Longest Diameter",
    "TRORRES": "7.3",
    "TRORRESU": "cm",
    "TRSTRESN": 7.2838,
    "TRSTRESU": "cm"
  },
  {
    "USUBJID": "002-006",
    "ARM": "Drug A 200 mg QD",
    "ARMCD": "A200QD",
    "ACTARM": "Drug A 200 mg QD",
    "ACTARMCD": "A200QD",
    "TRT01P": "Drug A 200 mg QD",
    "TRT01A": "Drug A 200 mg QD",
    "RANDDT": "2024-03-12",
    "TRTSDT": "2024-03-12",
    "TRTENDT": "2025-02-21",
    "STUDYID": "ONCOLOGY-001",
    "AVISIT": "Visit 3",
    "AVISITN": 3,
    "ADY": 67,
    "TRLOC": "liver",
    "TRGRPID": "T02",
    "TRLNKID": "T02",
    "TRTESTCD": "LDIAM",
    "TRTEST": "Longest Diameter",
    "TRORRES": "5.8",
    "TRORRESU": "cm",
    "TRSTRESN": 5.827,
    "TRSTRESU": "cm"
  },
  {
    "USUBJID": "002-006",
    "ARM": "Drug A 200 mg QD",
    "ARMCD": "A200QD",
    "ACTARM": "Drug A 200 mg QD",
    "ACTARMCD": "A200QD",
    "TRT01P": "Drug A 200 mg QD",
    "TRT01A": "Drug A 200 mg QD",
    "RANDDT": "2024-03-12",
    "TRTSDT": "2024-03-12",
    "TRTENDT": "2025-02-21",
    "STUDYID": "ONCOLOGY-001",
    "AVISIT": "Visit 3",
    "AVISITN": 3,
    "ADY": 67,
    "TRLOC": "liver",
    "TRGRPID": "T03.1",
    "TRLNKID": "T03.1",
    "TRTESTCD": "LDIAM",
    "TRTEST": "Longest Diameter",
    "TRORRES": "2.4",
    "TRORRESU": "cm",
    "TRSTRESN": 2.3672,
    "TRSTRESU": "cm"
  },
  {
    "USUBJID": "002-006",
    "ARM": "Drug A 200 mg QD",
    "ARMCD": "A200QD",
    "ACTARM": "Drug A 200 mg QD",
    "ACTARMCD": "A200QD",
    "TRT01P": "Drug A 200 mg QD",
    "TRT01A": "Drug A 200 mg QD",
    "RANDDT": "2024-03-12",
    "TRTSDT": "2024-03-12",
    "TRTENDT": "2025-02-21",
    "STUDYID": "ONCOLOGY-001",
    "AVISIT": "Visit 3",
    "AVISITN": 3,
    "ADY": 67,
    "TRLOC": "liver",
    "TRGRPID": "T03.2",
    "TRLNKID": "T03.2",
    "TRTESTCD": "LDIAM",
    "TRTEST": "Longest Diameter",
    "TRORRES": "2.2",
    "TRORRESU": "cm",
    "TRSTRESN": 2.1851,
    "TRSTRESU": "cm"
  },
  {
    "USUBJID": "002-006",
    "ARM": "Drug A 200 mg QD",
    "ARMCD": "A200QD",
    "ACTARM": "Drug A 200 mg QD",
    "ACTARMCD": "A200QD",
    "TRT01P": "Drug A 200 mg QD",
    "TRT01A": "Drug A 200 mg QD",
    "RANDDT": "2024-03-12",
    "TRTSDT": "2024-03-12",
    "TRTENDT": "2025-02-21",
    "STUDYID": "ONCOLOGY-001",
    "AVISIT": "Visit 3",
    "AVISITN": 3,
    "ADY": 67,
    "TRLOC": "liver",
    "TRGRPID": "T04",
    "TRLNKID": "T04",
    "TRTESTCD": "LDIAM",
    "TRTEST": "Longest Diameter",
    "TRORRES": "3.5",
    "TRORRESU": "cm",
    "TRSTRESN": 3.4598,
    "TRSTRESU": "cm"
  },
  {
    "USUBJID": "002-011",
    "ARM": "Placebo",
    "ARMCD": "PBO",
    "ACTARM": "Placebo",
    "ACTARMCD": "PBO",
    "TRT01P": "Placebo",
    "TRT01A": "Placebo",
    "RANDDT": "2024-03-26",
    "TRTSDT": "2024-03-26",
    "TRTENDT": "2024-12-14",
    "STUDYID": "ONCOLOGY-001",
    "AVISIT": "Visit 1",
    "AVISITN": 1,
    "ADY": 0,
    "TRLOC": "kidney",
    "TRGRPID": "T20",
    "TRLNKID": "T20",
    "TRTESTCD": "LDIAM",
    "TRTEST": "Longest Diameter",
    "TRORRES": "2.6",
    "TRORRESU": "cm",
    "TRSTRESN": 2.6259,
    "TRSTRESU": "cm"
  },
  {
    "USUBJID": "002-011",
    "ARM": "Placebo",
    "ARMCD": "PBO",
    "ACTARM": "Placebo",
    "ACTARMCD": "PBO",
    "TRT01P": "Placebo",
    "TRT01A": "Placebo",
    "RANDDT": "2024-03-26",
    "TRTSDT": "2024-03-26",
    "TRTENDT": "2024-12-14",
    "STUDYID": "ONCOLOGY-001",
    "AVISIT": "Visit 1",
    "AVISITN": 1,
    "ADY": 0,
    "TRLOC": "kidney",
    "TRGRPID": "T21",
    "TRLNKID": "T21",
    "TRTESTCD": "LDIAM",
    "TRTEST": "Longest Diameter",
    "TRORRES": "1.9",
    "TRORRESU": "cm",
    "TRSTRESN": 1.9098,
    "TRSTRESU": "cm"
  },
  {
    "USUBJID": "002-011",
    "ARM": "Placebo",
    "ARMCD": "PBO",
    "ACTARM": "Placebo",
    "ACTARMCD": "PBO",
    "TRT01P": "Placebo",
    "TRT01A": "Placebo",
    "RANDDT": "2024-03-26",
    "TRTSDT": "2024-03-26",
    "TRTENDT": "2024-12-14",
    "STUDYID": "ONCOLOGY-001",
    "AVISIT": "Visit 1",
    "AVISITN": 1,
    "ADY": 0,
    "TRLOC": "kidney",
    "TRGRPID": "TN1",
    "TRLNKID": "TN1",
    "TRTESTCD": "LDIAM",
    "TRTEST": "Longest Diameter",
    "TRORRES": "1.2",
    "TRORRESU": "cm",
    "TRSTRESN": 1.2401,
    "TRSTRESU": "cm"
  },
  {
    "USUBJID": "002-011",
    "ARM": "Placebo",
    "ARMCD": "PBO",
    "ACTARM": "Placebo",
    "ACTARMCD": "PBO",
    "TRT01P": "Placebo",
    "TRT01A": "Placebo",
    "RANDDT": "2024-03-26",
    "TRTSDT": "2024-03-26",
    "TRTENDT": "2024-12-14",
    "STUDYID": "ONCOLOGY-001",
    "AVISIT": "Visit 2",
    "AVISITN": 2,
    "ADY": 36,
    "TRLOC": "kidney",
    "TRGRPID": "T20",
    "TRLNKID": "T20",
    "TRTESTCD": "LDIAM",
    "TRTEST": "Longest Diameter",
    "TRORRES": "3.1",
    "TRORRESU": "cm",
    "TRSTRESN": 3.056,
    "TRSTRESU": "cm"
  },
  {
    "USUBJID": "002-011",
    "ARM": "Placebo",
    "ARMCD": "PBO",
    "ACTARM": "Placebo",
    "ACTARMCD": "PBO",
    "TRT01P": "Placebo",
    "TRT01A": "Placebo",
    "RANDDT": "2024-03-26",
    "TRTSDT": "2024-03-26",
    "TRTENDT": "2024-12-14",
    "STUDYID": "ONCOLOGY-001",
    "AVISIT": "Visit 2",
    "AVISITN": 2,
    "ADY": 36,
    "TRLOC": "kidney",
    "TRGRPID": "T21",
    "TRLNKID": "T21",
    "TRTESTCD": "LDIAM",
    "TRTEST": "Longest Diameter",
    "TRORRES": "2.2",
    "TRORRESU": "cm",
    "TRSTRESN": 2.1647,
    "TRSTRESU": "cm"
  },
  {
    "USUBJID": "002-011",
    "ARM": "Placebo",
    "ARMCD": "PBO",
    "ACTARM": "Placebo",
    "ACTARMCD": "PBO",
    "TRT01P": "Placebo",
    "TRT01A": "Placebo",
    "RANDDT": "2024-03-26",
    "TRTSDT": "2024-03-26",
    "TRTENDT": "2024-12-14",
    "STUDYID": "ONCOLOGY-001",
    "AVISIT": "Visit 2",
    "AVISITN": 2,
    "ADY": 36,
    "TRLOC": "kidney",
    "TRGRPID": "T22",
    "TRLNKID": "T22",
    "TRTESTCD": "LDIAM",
    "TRTEST": "Longest Diameter",
    "TRORRES": "1.4",
    "TRORRESU": "cm",
    "TRSTRESN": 1.4007,
    "TRSTRESU": "cm"
  },
  {
    "USUBJID": "002-011",
    "ARM": "Placebo",
    "ARMCD": "PBO",
    "ACTARM": "Placebo",
    "ACTARMCD": "PBO",
    "TRT01P": "Placebo",
    "TRT01A": "Placebo",
    "RANDDT": "2024-03-26",
    "TRTSDT": "2024-03-26",
    "TRTENDT": "2024-12-14",
    "STUDYID": "ONCOLOGY-001",
    "AVISIT": "Visit 2",
    "AVISITN": 2,
    "ADY": 36,
    "TRLOC": "kidney",
    "TRGRPID": "TN1",
    "TRLNKID": "TN1",
    "TRTESTCD": "LDIAM",
    "TRTEST": "Longest Diameter",
    "TRORRES": "1.5",
    "TRORRESU": "cm",
    "TRSTRESN": 1.4752,
    "TRSTRESU": "cm"
  },
  {
    "USUBJID": "002-011",
    "ARM": "Placebo",
    "ARMCD": "PBO",
    "ACTARM": "Placebo",
    "ACTARMCD": "PBO",
    "TRT01P": "Placebo",
    "TRT01A": "Placebo",
    "RANDDT": "2024-03-26",
    "TRTSDT": "2024-03-26",
    "TRTENDT": "2024-12-14",
    "STUDYID": "ONCOLOGY-001",
    "AVISIT": "Visit 5",
    "AVISITN": 5,
    "ADY": 151,
    "TRLOC": "kidney",
    "TRGRPID": "T20/T21",
    "TRLNKID": "T20/T21",
    "TRTESTCD": "LDIAM",
    "TRTEST": "Longest Diameter",
    "TRORRES": "5.1",
    "TRORRESU": "cm",
    "TRSTRESN": 5.144,
    "TRSTRESU": "cm"
  },
  {
    "USUBJID": "002-011",
    "ARM": "Placebo",
    "ARMCD": "PBO",
    "ACTARM": "Placebo",
    "ACTARMCD": "PBO",
    "TRT01P": "Placebo",
    "TRT01A": "Placebo",
    "RANDDT": "2024-03-26",
    "TRTSDT": "2024-03-26",
    "TRTENDT": "2024-12-14",
    "STUDYID": "ONCOLOGY-001",
    "AVISIT": "Visit 5",
    "AVISITN": 5,
    "ADY": 151,
    "TRLOC": "kidney",
    "TRGRPID": "T22",
    "TRLNKID": "T22",
    "TRTESTCD": "LDIAM",
    "TRTEST": "Longest Diameter",
    "TRORRES": "1.9",
    "TRORRESU": "cm",
    "TRSTRESN": 1.8952,
    "TRSTRESU": "cm"
  },
  {
    "USUBJID": "002-011",
    "ARM": "Placebo",
    "ARMCD": "PBO",
    "ACTARM": "Placebo",
    "ACTARMCD": "PBO",
    "TRT01P": "Placebo",
    "TRT01A": "Placebo",
    "RANDDT": "2024-03-26",
    "TRTSDT": "2024-03-26",
    "TRTENDT": "2024-12-14",
    "STUDYID": "ONCOLOGY-001",
    "AVISIT": "Visit 5",
    "AVISITN": 5,
    "ADY": 151,
    "TRLOC": "kidney",
    "TRGRPID": "T23",
    "TRLNKID": "T23",
    "TRTESTCD": "LDIAM",
    "TRTEST": "Longest Diameter",
    "TRORRES": "1.4",
    "TRORRESU": "cm",
    "TRSTRESN": 1.3537,
    "TRSTRESU": "cm"
  },
  {
    "USUBJID": "002-011",
    "ARM": "Placebo",
    "ARMCD": "PBO",
    "ACTARM": "Placebo",
    "ACTARMCD": "PBO",
    "TRT01P": "Placebo",
    "TRT01A": "Placebo",
    "RANDDT": "2024-03-26",
    "TRTSDT": "2024-03-26",
    "TRTENDT": "2024-12-14",
    "STUDYID": "ONCOLOGY-001",
    "AVISIT": "Visit 5",
    "AVISITN": 5,
    "ADY": 151,
    "TRLOC": "kidney",
    "TRGRPID": "TN1",
    "TRLNKID": "TN1",
    "TRTESTCD": "LDIAM",
    "TRTEST": "Longest Diameter",
    "TRORRES": "2.5",
    "TRORRESU": "cm",
    "TRSTRESN": 2.4835,
    "TRSTRESU": "cm"
  },
  {
    "USUBJID": "002-015",
    "ARM": "Drug A 200 mg QD",
    "ARMCD": "A200QD",
    "ACTARM": "Drug A 200 mg QD",
    "ACTARMCD": "A200QD",
    "TRT01P": "Drug A 200 mg QD",
    "TRT01A": "Drug A 200 mg QD",
    "RANDDT": "2024-05-16",
    "TRTSDT": "2024-05-16",
    "TRTENDT": "2025-02-08",
    "STUDYID": "ONCOLOGY-001",
    "AVISIT": "Visit 1",
    "AVISITN": 1,
    "ADY": 0,
    "TRLOC": "lung",
    "TRGRPID": "T06",
    "TRLNKID": "T06",
    "TRTESTCD": "LDIAM",
    "TRTEST": "Longest Diameter",
    "TRORRES": "3.0",
    "TRORRESU": "cm",
    "TRSTRESN": 2.9586,
    "TRSTRESU": "cm"
  },
  {
    "USUBJID": "002-015",
    "ARM": "Drug A 200 mg QD",
    "ARMCD": "A200QD",
    "ACTARM": "Drug A 200 mg QD",
    "ACTARMCD": "A200QD",
    "TRT01P": "Drug A 200 mg QD",
    "TRT01A": "Drug A 200 mg QD",
    "RANDDT": "2024-05-16",
    "TRTSDT": "2024-05-16",
    "TRTENDT": "2025-02-08",
    "STUDYID": "ONCOLOGY-001",
    "AVISIT": "Visit 1",
    "AVISITN": 1,
    "ADY": 0,
    "TRLOC": "lung",
    "TRGRPID": "T07",
    "TRLNKID": "T07",
    "TRTESTCD": "LDIAM",
    "TRTEST": "Longest Diameter",
    "TRORRES": "2.1",
    "TRORRESU": "cm",
    "TRSTRESN": 2.1302,
    "TRSTRESU": "cm"
  },
  {
    "USUBJID": "002-015",
    "ARM": "Drug A 200 mg QD",
    "ARMCD": "A200QD",
    "ACTARM": "Drug A 200 mg QD",
    "ACTARMCD": "A200QD",
    "TRT01P": "Drug A 200 mg QD",
    "TRT01A": "Drug A 200 mg QD",
    "RANDDT": "2024-05-16",
    "TRTSDT": "2024-05-16",
    "TRTENDT": "2025-02-08",
    "STUDYID": "ONCOLOGY-001",
    "AVISIT": "Visit 2",
    "AVISITN": 2,
    "ADY": 51,
    "TRLOC": "lung",
    "TRGRPID": "T06",
    "TRLNKID": "T06",
    "TRTESTCD": "LDIAM",
    "TRTEST": "Longest Diameter",
    "TRORRES": "3.2",
    "TRORRESU": "cm",
    "TRSTRESN": 3.2159,
    "TRSTRESU": "cm"
  },
  {
    "USUBJID": "002-015",
    "ARM": "Drug A 200 mg QD",
    "ARMCD": "A200QD",
    "ACTARM": "Drug A 200 mg QD",
    "ACTARMCD": "A200QD",
    "TRT01P": "Drug A 200 mg QD",
    "TRT01A": "Drug A 200 mg QD",
    "RANDDT": "2024-05-16",
    "TRTSDT": "2024-05-16",
    "TRTENDT": "2025-02-08",
    "STUDYID": "ONCOLOGY-001",
    "AVISIT": "Visit 2",
    "AVISITN": 2,
    "ADY": 51,
    "TRLOC": "lung",
    "TRGRPID": "T07",
    "TRLNKID": "T07",
    "TRTESTCD": "LDIAM",
    "TRTEST": "Longest Diameter",
    "TRORRES": "2.3",
    "TRORRESU": "cm",
    "TRSTRESN": 2.2631,
    "TRSTRESU": "cm"
  },
  {
    "USUBJID": "002-015",
    "ARM": "Drug A 200 mg QD",
    "ARMCD": "A200QD",
    "ACTARM": "Drug A 200 mg QD",
    "ACTARMCD": "A200QD",
    "TRT01P": "Drug A 200 mg QD",
    "TRT01A": "Drug A 200 mg QD",
    "RANDDT": "2024-05-16",
    "TRTSDT": "2024-05-16",
    "TRTENDT": "2025-02-08",
    "STUDYID": "ONCOLOGY-001",
    "AVISIT": "Visit 3",
    "AVISITN": 3,
    "ADY": 88,
    "TRLOC": "lung",
    "TRGRPID": "T06",
    "TRLNKID": "T06",
    "TRTESTCD": "LDIAM",
    "TRTEST": "Longest Diameter",
    "TRORRES": "3.7",
    "TRORRESU": "cm",
    "TRSTRESN": 3.6566,
    "TRSTRESU": "cm"
  },
  {
    "USUBJID": "002-015",
    "ARM": "Drug A 200 mg QD",
    "ARMCD": "A200QD",
    "ACTARM": "Drug A 200 mg QD",
    "ACTARMCD": "A200QD",
    "TRT01P": "Drug A 200 mg QD",
    "TRT01A": "Drug A 200 mg QD",
    "RANDDT": "2024-05-16",
    "TRTSDT": "2024-05-16",
    "TRTENDT": "2025-02-08",
    "STUDYID": "ONCOLOGY-001",
    "AVISIT": "Visit 3",
    "AVISITN": 3,
    "ADY": 88,
    "TRLOC": "lung",
    "TRGRPID": "T07",
    "TRLNKID": "T07",
    "TRTESTCD": "LDIAM",
    "TRTEST": "Longest Diameter",
    "TRORRES": "2.5",
    "TRORRESU": "cm",
    "TRSTRESN": 2.5218,
    "TRSTRESU": "cm"
  },
  {
    "USUBJID": "002-015",
    "ARM": "Drug A 200 mg QD",
    "ARMCD": "A200QD",
    "ACTARM": "Drug A 200 mg QD",
    "ACTARMCD": "A200QD",
    "TRT01P": "Drug A 200 mg QD",
    "TRT01A": "Drug A 200 mg QD",
    "RANDDT": "2024-05-16",
    "TRTSDT": "2024-05-16",
    "TRTENDT": "2025-02-08",
    "STUDYID": "ONCOLOGY-001",
    "AVISIT": "Visit 4",
    "AVISITN": 4,
    "ADY": 138,
    "TRLOC": "lung",
    "TRGRPID": "T06/T07",
    "TRLNKID": "T06/T07",
    "TRTESTCD": "LDIAM",
    "TRTEST": "Longest Diameter",
    "TRORRES": "1.8",
    "TRORRESU": "cm",
    "TRSTRESN": 1.8197,
    "TRSTRESU": "cm"
  },
  {
    "USUBJID": "002-015",
    "ARM": "Drug A 200 mg QD",
    "ARMCD": "A200QD",
    "ACTARM": "Drug A 200 mg QD",
    "ACTARMCD": "A200QD",
    "TRT01P": "Drug A 200 mg QD",
    "TRT01A": "Drug A 200 mg QD",
    "RANDDT": "2024-05-16",
    "TRTSDT": "2024-05-16",
    "TRTENDT": "2025-02-08",
    "STUDYID": "ONCOLOGY-001",
    "AVISIT": "Visit 5",
    "AVISITN": 5,
    "ADY": 175,
    "TRLOC": "lung",
    "TRGRPID": "T06/T07",
    "TRLNKID": "T06/T07",
    "TRTESTCD": "LDIAM",
    "TRTEST": "Longest Diameter",
    "TRORRES": "2.0",
    "TRORRESU": "cm",
    "TRSTRESN": 2.0493,
    "TRSTRESU": "cm"
  },
  {
    "USUBJID": "002-015",
    "ARM": "Drug A 200 mg QD",
    "ARMCD": "A200QD",
    "ACTARM": "Drug A 200 mg QD",
    "ACTARMCD": "A200QD",
    "TRT01P": "Drug A 200 mg QD",
    "TRT01A": "Drug A 200 mg QD",
    "RANDDT": "2024-05-16",
    "TRTSDT": "2024-05-16",
    "TRTENDT": "2025-02-08",
    "STUDYID": "ONCOLOGY-001",
    "AVISIT": "Visit 6",
    "AVISITN": 6,
    "ADY": 220,
    "TRLOC": "lung",
    "TRGRPID": "T06/T07",
    "TRLNKID": "T06/T07",
    "TRTESTCD": "LDIAM",
    "TRTEST": "Longest Diameter",
    "TRORRES": "2.5",
    "TRORRESU": "cm",
    "TRSTRESN": 2.5323,
    "TRSTRESU": "cm"
  },
  {
    "USUBJID": "002-020",
    "ARM": "Drug B 100 mg BID",
    "ARMCD": "B100BID",
    "ACTARM": "Drug B 100 mg BID",
    "ACTARMCD": "B100BID",
    "TRT01P": "Drug B 100 mg BID",
    "TRT01A": "Drug B 100 mg BID",
    "RANDDT": "2024-02-06",
    "TRTSDT": "2024-02-06",
    "TRTENDT": "2024-12-20",
    "STUDYID": "ONCOLOGY-001",
    "AVISIT": "Visit 1",
    "AVISITN": 1,
    "ADY": 0,
    "TRLOC": "kidney",
    "TRGRPID": "T20",
    "TRLNKID": "T20",
    "TRTESTCD": "LDIAM",
    "TRTEST": "Longest Diameter",
    "TRORRES": "2.6",
    "TRORRESU": "cm",
    "TRSTRESN": 2.644,
    "TRSTRESU": "cm"
  },
  {
    "USUBJID": "002-020",
    "ARM": "Drug B 100 mg BID",
    "ARMCD": "B100BID",
    "ACTARM": "Drug B 100 mg BID",
    "ACTARMCD": "B100BID",
    "TRT01P": "Drug B 100 mg BID",
    "TRT01A": "Drug B 100 mg BID",
    "RANDDT": "2024-02-06",
    "TRTSDT": "2024-02-06",
    "TRTENDT": "2024-12-20",
    "STUDYID": "ONCOLOGY-001",
    "AVISIT": "Visit 1",
    "AVISITN": 1,
    "ADY": 0,
    "TRLOC": "kidney",
    "TRGRPID": "T21",
    "TRLNKID": "T21",
    "TRTESTCD": "LDIAM",
    "TRTEST": "Longest Diameter",
    "TRORRES": "1.9",
    "TRORRESU": "cm",
    "TRSTRESN": 1.9229,
    "TRSTRESU": "cm"
  },
  {
    "USUBJID": "002-020",
    "ARM": "Drug B 100 mg BID",
    "ARMCD": "B100BID",
    "ACTARM": "Drug B 100 mg BID",
    "ACTARMCD": "B100BID",
    "TRT01P": "Drug B 100 mg BID",
    "TRT01A": "Drug B 100 mg BID",
    "RANDDT": "2024-02-06",
    "TRTSDT": "2024-02-06",
    "TRTENDT": "2024-12-20",
    "STUDYID": "ONCOLOGY-001",
    "AVISIT": "Visit 1",
    "AVISITN": 1,
    "ADY": 0,
    "TRLOC": "lung",
    "TRGRPID": "T06",
    "TRLNKID": "T06",
    "TRTESTCD": "LDIAM",
    "TRTEST": "Longest Diameter",
    "TRORRES": "3.0",
    "TRORRESU": "cm",
    "TRSTRESN": 3.0046,
    "TRSTRESU": "cm"
  },
  {
    "USUBJID": "002-020",
    "ARM": "Drug B 100 mg BID",
    "ARMCD": "B100BID",
    "ACTARM": "Drug B 100 mg BID",
    "ACTARMCD": "B100BID",
    "TRT01P": "Drug B 100 mg BID",
    "TRT01A": "Drug B 100 mg BID",
    "RANDDT": "2024-02-06",
    "TRTSDT": "2024-02-06",
    "TRTENDT": "2024-12-20",
    "STUDYID": "ONCOLOGY-001",
    "AVISIT": "Visit 1",
    "AVISITN": 1,
    "ADY": 0,
    "TRLOC": "lung",
    "TRGRPID": "T07",
    "TRLNKID": "T07",
    "TRTESTCD": "LDIAM",
    "TRTEST": "Longest Diameter",
    "TRORRES": "2.2",
    "TRORRESU": "cm",
    "TRSTRESN": 2.1633,
    "TRSTRESU": "cm"
  },
  {
    "USUBJID": "002-020",
    "ARM": "Drug B 100 mg BID",
    "ARMCD": "B100BID",
    "ACTARM": "Drug B 100 mg BID",
    "ACTARMCD": "B100BID",
    "TRT01P": "Drug B 100 mg BID",
    "TRT01A": "Drug B 100 mg BID",
    "RANDDT": "2024-02-06",
    "TRTSDT": "2024-02-06",
    "TRTENDT": "2024-12-20",
    "STUDYID": "ONCOLOGY-001",
    "AVISIT": "Visit 2",
    "AVISITN": 2,
    "ADY": 38,
    "TRLOC": "kidney",
    "TRGRPID": "T20",
    "TRLNKID": "T20",
    "TRTESTCD": "LDIAM",
    "TRTEST": "Longest Diameter",
    "TRORRES": "2.8",
    "TRORRESU": "cm",
    "TRSTRESN": 2.8039,
    "TRSTRESU": "cm"
  },
  {
    "USUBJID": "002-020",
    "ARM": "Drug B 100 mg BID",
    "ARMCD": "B100BID",
    "ACTARM": "Drug B 100 mg BID",
    "ACTARMCD": "B100BID",
    "TRT01P": "Drug B 100 mg BID",
    "TRT01A": "Drug B 100 mg BID",
    "RANDDT": "2024-02-06",
    "TRTSDT": "2024-02-06",
    "TRTENDT": "2024-12-20",
    "STUDYID": "ONCOLOGY-001",
    "AVISIT": "Visit 2",
    "AVISITN": 2,
    "ADY": 38,
    "TRLOC": "kidney",
    "TRGRPID": "T21",
    "TRLNKID": "T21",
    "TRTESTCD": "LDIAM",
    "TRTEST": "Longest Diameter",
    "TRORRES": "2.0",
    "TRORRESU": "cm",
    "TRSTRESN": 1.9861,
    "TRSTRESU": "cm"
  },
  {
    "USUBJID": "002-020",
    "ARM": "Drug B 100 mg BID",
    "ARMCD": "B100BID",
    "ACTARM": "Drug B 100 mg BID",
    "ACTARMCD": "B100BID",
    "TRT01P": "Drug B 100 mg BID",
    "TRT01A": "Drug B 100 mg BID",
    "RANDDT": "2024-02-06",
    "TRTSDT": "2024-02-06",
    "TRTENDT": "2024-12-20",
    "STUDYID": "ONCOLOGY-001",
    "AVISIT": "Visit 2",
    "AVISITN": 2,
    "ADY": 38,
    "TRLOC": "lung",
    "TRGRPID": "T06",
    "TRLNKID": "T06",
    "TRTESTCD": "LDIAM",
    "TRTEST": "Longest Diameter",
    "TRORRES": "3.2",
    "TRORRESU": "cm",
    "TRSTRESN": 3.1544,
    "TRSTRESU": "cm"
  },
  {
    "USUBJID": "002-020",
    "ARM": "Drug B 100 mg BID",
    "ARMCD": "B100BID",
    "ACTARM": "Drug B 100 mg BID",
    "ACTARMCD": "B100BID",
    "TRT01P": "Drug B 100 mg BID",
    "TRT01A": "Drug B 100 mg BID",
    "RANDDT": "2024-02-06",
    "TRTSDT": "2024-02-06",
    "TRTENDT": "2024-12-20",
    "STUDYID": "ONCOLOGY-001",
    "AVISIT": "Visit 2",
    "AVISITN": 2,
    "ADY": 38,
    "TRLOC": "lung",
    "TRGRPID": "T07",
    "TRLNKID": "T07",
    "TRTESTCD": "LDIAM",
    "TRTEST": "Longest Diameter",
    "TRORRES": "2.2",
    "TRORRESU": "cm",
    "TRSTRESN": 2.2198,
    "TRSTRESU": "cm"
  },
  {
    "USUBJID": "002-020",
    "ARM": "Drug B 100 mg BID",
    "ARMCD": "B100BID",
    "ACTARM": "Drug B 100 mg BID",
    "ACTARMCD": "B100BID",
    "TRT01P": "Drug B 100 mg BID",
    "TRT01A": "Drug B 100 mg BID",
    "RANDDT": "2024-02-06",
    "TRTSDT": "2024-02-06",
    "TRTENDT": "2024-12-20",
    "STUDYID": "ONCOLOGY-001",
    "AVISIT": "Visit 3",
    "AVISITN": 3,
    "ADY": 68,
    "TRLOC": "kidney",
    "TRGRPID": "T20",
    "TRLNKID": "T20",
    "TRTESTCD": "LDIAM",
    "TRTEST": "Longest Diameter",
    "TRORRES": "2.7",
    "TRORRESU": "cm",
    "TRSTRESN": 2.6904,
    "TRSTRESU": "cm"
  },
  {
    "USUBJID": "002-020",
    "ARM": "Drug B 100 mg BID",
    "ARMCD": "B100BID",
    "ACTARM": "Drug B 100 mg BID",
    "ACTARMCD": "B100BID",
    "TRT01P": "Drug B 100 mg BID",
    "TRT01A": "Drug B 100 mg BID",
    "RANDDT": "2024-02-06",
    "TRTSDT": "2024-02-06",
    "TRTENDT": "2024-12-20",
    "STUDYID": "ONCOLOGY-001",
    "AVISIT": "Visit 3",
    "AVISITN": 3,
    "ADY": 68,
    "TRLOC": "kidney",
    "TRGRPID": "T21",
    "TRLNKID": "T21",
    "TRTESTCD": "LDIAM",
    "TRTEST": "Longest Diameter",
    "TRORRES": "1.9",
    "TRORRESU": "cm",
    "TRSTRESN": 1.8626,
    "TRSTRESU": "cm"
  },
  {
    "USUBJID": "002-020",
    "ARM": "Drug B 100 mg BID",
    "ARMCD": "B100BID",
    "ACTARM": "Drug B 100 mg BID",
    "ACTARMCD": "B100BID",
    "TRT01P": "Drug B 100 mg BID",
    "TRT01A": "Drug B 100 mg BID",
    "RANDDT": "2024-02-06",
    "TRTSDT": "2024-02-06",
    "TRTENDT": "2024-12-20",
    "STUDYID": "ONCOLOGY-001",
    "AVISIT": "Visit 3",
    "AVISITN": 3,
    "ADY": 68,
    "TRLOC": "lung",
    "TRGRPID": "T06",
    "TRLNKID": "T06",
    "TRTESTCD": "LDIAM",
    "TRTEST": "Longest Diameter",
    "TRORRES": "3.0",
    "TRORRESU": "cm",
    "TRSTRESN": 3.0008,
    "TRSTRESU": "cm"
  },
  {
    "USUBJID": "002-020",
    "ARM": "Drug B 100 mg BID",
    "ARMCD": "B100BID",
    "ACTARM": "Drug B 100 mg BID",
    "ACTARMCD": "B100BID",
    "TRT01P": "Drug B 100 mg BID",
    "TRT01A": "Drug B 100 mg BID",
    "RANDDT": "2024-02-06",
    "TRTSDT": "2024-02-06",
    "TRTENDT": "2024-12-20",
    "STUDYID": "ONCOLOGY-001",
    "AVISIT": "Visit 3",
    "AVISITN": 3,
    "ADY": 68,
    "TRLOC": "lung",
    "TRGRPID": "T07",
    "TRLNKID": "T07",
    "TRTESTCD": "LDIAM",
    "TRTEST": "Longest Diameter",
    "TRORRES": "2.1",
    "TRORRESU": "cm",
    "TRSTRESN": 2.0695,
    "TRSTRESU": "cm"
  },
  {
    "USUBJID": "002-020",
    "ARM": "Drug B 100 mg BID",
    "ARMCD": "B100BID",
    "ACTARM": "Drug B 100 mg BID",
    "ACTARMCD": "B100BID",
    "TRT01P": "Drug B 100 mg BID",
    "TRT01A": "Drug B 100 mg BID",
    "RANDDT": "2024-02-06",
    "TRTSDT": "2024-02-06",
    "TRTENDT": "2024-12-20",
    "STUDYID": "ONCOLOGY-001",
    "AVISIT": "Visit 4",
    "AVISITN": 4,
    "ADY": 123,
    "TRLOC": "kidney",
    "TRGRPID": "T20/T21",
    "TRLNKID": "T20/T21",
    "TRTESTCD": "LDIAM",
    "TRTEST": "Longest Diameter",
    "TRORRES": "3.8",
    "TRORRESU": "cm",
    "TRSTRESN": 3.8434,
    "TRSTRESU": "cm"
  },
  {
    "USUBJID": "002-020",
    "ARM": "Drug B 100 mg BID",
    "ARMCD": "B100BID",
    "ACTARM": "Drug B 100 mg BID",
    "ACTARMCD": "B100BID",
    "TRT01P": "Drug B 100 mg BID",
    "TRT01A": "Drug B 100 mg BID",
    "RANDDT": "2024-02-06",
    "TRTSDT": "2024-02-06",
    "TRTENDT": "2024-12-20",
    "STUDYID": "ONCOLOGY-001",
    "AVISIT": "Visit 4",
    "AVISITN": 4,
    "ADY": 123,
    "TRLOC": "lung",
    "TRGRPID": "T06/T07",
    "TRLNKID": "T06/T07",
    "TRTESTCD": "LDIAM",
    "TRTEST": "Longest Diameter",
    "TRORRES": "4.3",
    "TRORRESU": "cm",
    "TRSTRESN": 4.2704,
    "TRSTRESU": "cm"
  },
  {
    "USUBJID": "002-020",
    "ARM": "Drug B 100 mg BID",
    "ARMCD": "B100BID",
    "ACTARM": "Drug B 100 mg BID",
    "ACTARMCD": "B100BID",
    "TRT01P": "Drug B 100 mg BID",
    "TRT01A": "Drug B 100 mg BID",
    "RANDDT": "2024-02-06",
    "TRTSDT": "2024-02-06",
    "TRTENDT": "2024-12-20",
    "STUDYID": "ONCOLOGY-001",
    "AVISIT": "Visit 5",
    "AVISITN": 5,
    "ADY": 159,
    "TRLOC": "kidney",
    "TRGRPID": "T20/T21",
    "TRLNKID": "T20/T21",
    "TRTESTCD": "LDIAM",
    "TRTEST": "Longest Diameter",
    "TRORRES": "1.8",
    "TRORRESU": "cm",
    "TRSTRESN": 1.8267,
    "TRSTRESU": "cm"
  },
  {
    "USUBJID": "002-020",
    "ARM": "Drug B 100 mg BID",
    "ARMCD": "B100BID",
    "ACTARM": "Drug B 100 mg BID",
    "ACTARMCD": "B100BID",
    "TRT01P": "Drug B 100 mg BID",
    "TRT01A": "Drug B 100 mg BID",
    "RANDDT": "2024-02-06",
    "TRTSDT": "2024-02-06",
    "TRTENDT": "2024-12-20",
    "STUDYID": "ONCOLOGY-001",
    "AVISIT": "Visit 5",
    "AVISITN": 5,
    "ADY": 159,
    "TRLOC": "lung",
    "TRGRPID": "T06/T07",
    "TRLNKID": "T06/T07",
    "TRTESTCD": "LDIAM",
    "TRTEST": "Longest Diameter",
    "TRORRES": "2.1",
    "TRORRESU": "cm",
    "TRSTRESN": 2.067,
    "TRSTRESU": "cm"
  },
  {
    "USUBJID": "002-020",
    "ARM": "Drug B 100 mg BID",
    "ARMCD": "B100BID",
    "ACTARM": "Drug B 100 mg BID",
    "ACTARMCD": "B100BID",
    "TRT01P": "Drug B 100 mg BID",
    "TRT01A": "Drug B 100 mg BID",
    "RANDDT": "2024-02-06",
    "TRTSDT": "2024-02-06",
    "TRTENDT": "2024-12-20",
    "STUDYID": "ONCOLOGY-001",
    "AVISIT": "Visit 6",
    "AVISITN": 6,
    "ADY": 216,
    "TRLOC": "kidney",
    "TRGRPID": "T20/T21",
    "TRLNKID": "T20/T21",
    "TRTESTCD": "LDIAM",
    "TRTEST": "Longest Diameter",
    "TRORRES": "0.0",
    "TRORRESU": "cm",
    "TRSTRESN": 0,
    "TRSTRESU": "cm"
  },
  {
    "USUBJID": "002-020",
    "ARM": "Drug B 100 mg BID",
    "ARMCD": "B100BID",
    "ACTARM": "Drug B 100 mg BID",
    "ACTARMCD": "B100BID",
    "TRT01P": "Drug B 100 mg BID",
    "TRT01A": "Drug B 100 mg BID",
    "RANDDT": "2024-02-06",
    "TRTSDT": "2024-02-06",
    "TRTENDT": "2024-12-20",
    "STUDYID": "ONCOLOGY-001",
    "AVISIT": "Visit 6",
    "AVISITN": 6,
    "ADY": 216,
    "TRLOC": "lung",
    "TRGRPID": "T06/T07",
    "TRLNKID": "T06/T07",
    "TRTESTCD": "LDIAM",
    "TRTEST": "Longest Diameter",
    "TRORRES": "0.0",
    "TRORRESU": "cm",
    "TRSTRESN": 0,
    "TRSTRESU": "cm"
  },
  {
    "USUBJID": "002-020",
    "ARM": "Drug B 100 mg BID",
    "ARMCD": "B100BID",
    "ACTARM": "Drug B 100 mg BID",
    "ACTARMCD": "B100BID",
    "TRT01P": "Drug B 100 mg BID",
    "TRT01A": "Drug B 100 mg BID",
    "RANDDT": "2024-02-06",
    "TRTSDT": "2024-02-06",
    "TRTENDT": "2024-12-20",
    "STUDYID": "ONCOLOGY-001",
    "AVISIT": "Visit 7",
    "AVISITN": 7,
    "ADY": 274,
    "TRLOC": "kidney",
    "TRGRPID": "T20/T21",
    "TRLNKID": "T20/T21",
    "TRTESTCD": "LDIAM",
    "TRTEST": "Longest Diameter",
    "TRORRES": "0.0",
    "TRORRESU": "cm",
    "TRSTRESN": 0,
    "TRSTRESU": "cm"
  },
  {
    "USUBJID": "002-020",
    "ARM": "Drug B 100 mg BID",
    "ARMCD": "B100BID",
    "ACTARM": "Drug B 100 mg BID",
    "ACTARMCD": "B100BID",
    "TRT01P": "Drug B 100 mg BID",
    "TRT01A": "Drug B 100 mg BID",
    "RANDDT": "2024-02-06",
    "TRTSDT": "2024-02-06",
    "TRTENDT": "2024-12-20",
    "STUDYID": "ONCOLOGY-001",
    "AVISIT": "Visit 7",
    "AVISITN": 7,
    "ADY": 274,
    "TRLOC": "lung",
    "TRGRPID": "T06/T07",
    "TRLNKID": "T06/T07",
    "TRTESTCD": "LDIAM",
    "TRTEST": "Longest Diameter",
    "TRORRES": "0.0",
    "TRORRESU": "cm",
    "TRSTRESN": 0,
    "TRSTRESU": "cm"
  },
  {
    "USUBJID": "002-037",
    "ARM": "Drug A 200 mg QD",
    "ARMCD": "A200QD",
    "ACTARM": "Drug A 200 mg QD",
    "ACTARMCD": "A200QD",
    "TRT01P": "Drug A 200 mg QD",
    "TRT01A": "Drug A 200 mg QD",
    "RANDDT": "2024-04-04",
    "TRTSDT": "2024-04-04",
    "TRTENDT": "2024-12-03",
    "STUDYID": "ONCOLOGY-001",
    "AVISIT": "Visit 1",
    "AVISITN": 1,
    "ADY": 0,
    "TRLOC": "liver",
    "TRGRPID": "T01",
    "TRLNKID": "T01",
    "TRTESTCD": "LDIAM",
    "TRTEST": "Longest Diameter",
    "TRORRES": "3.8",
    "TRORRESU": "cm",
    "TRSTRESN": 3.778,
    "TRSTRESU": "cm"
  },
  {
    "USUBJID": "002-037",
    "ARM": "Drug A 200 mg QD",
    "ARMCD": "A200QD",
    "ACTARM": "Drug A 200 mg QD",
    "ACTARMCD": "A200QD",
    "TRT01P": "Drug A 200 mg QD",
    "TRT01A": "Drug A 200 mg QD",
    "RANDDT": "2024-04-04",
    "TRTSDT": "2024-04-04",
    "TRTENDT": "2024-12-03",
    "STUDYID": "ONCOLOGY-001",
    "AVISIT": "Visit 1",
    "AVISITN": 1,
    "ADY": 0,
    "TRLOC": "liver",
    "TRGRPID": "T02",
    "TRLNKID": "T02",
    "TRTESTCD": "LDIAM",
    "TRTEST": "Longest Diameter",
    "TRORRES": "3.0",
    "TRORRESU": "cm",
    "TRSTRESN": 3.0224,
    "TRSTRESU": "cm"
  },
  {
    "USUBJID": "002-037",
    "ARM": "Drug A 200 mg QD",
    "ARMCD": "A200QD",
    "ACTARM": "Drug A 200 mg QD",
    "ACTARMCD": "A200QD",
    "TRT01P": "Drug A 200 mg QD",
    "TRT01A": "Drug A 200 mg QD",
    "RANDDT": "2024-04-04",
    "TRTSDT": "2024-04-04",
    "TRTENDT": "2024-12-03",
    "STUDYID": "ONCOLOGY-001",
    "AVISIT": "Visit 1",
    "AVISITN": 1,
    "ADY": 0,
    "TRLOC": "liver",
    "TRGRPID": "T03",
    "TRLNKID": "T03",
    "TRTESTCD": "LDIAM",
    "TRTEST": "Longest Diameter",
    "TRORRES": "2.3",
    "TRORRESU": "cm",
    "TRSTRESN": 2.2668,
    "TRSTRESU": "cm"
  },
  {
    "USUBJID": "002-037",
    "ARM": "Drug A 200 mg QD",
    "ARMCD": "A200QD",
    "ACTARM": "Drug A 200 mg QD",
    "ACTARMCD": "A200QD",
    "TRT01P": "Drug A 200 mg QD",
    "TRT01A": "Drug A 200 mg QD",
    "RANDDT": "2024-04-04",
    "TRTSDT": "2024-04-04",
    "TRTENDT": "2024-12-03",
    "STUDYID": "ONCOLOGY-001",
    "AVISIT": "Visit 1",
    "AVISITN": 1,
    "ADY": 0,
    "TRLOC": "lung",
    "TRGRPID": "T06",
    "TRLNKID": "T06",
    "TRTESTCD": "LDIAM",
    "TRTEST": "Longest Diameter",
    "TRORRES": "2.7",
    "TRORRESU": "cm",
    "TRSTRESN": 2.6986,
    "TRSTRESU": "cm"
  },
  {
    "USUBJID": "002-037",
    "ARM": "Drug A 200 mg QD",
    "ARMCD": "A200QD",
    "ACTARM": "Drug A 200 mg QD",
    "ACTARMCD": "A200QD",
    "TRT01P": "Drug A 200 mg QD",
    "TRT01A": "Drug A 200 mg QD",
    "RANDDT": "2024-04-04",
    "TRTSDT": "2024-04-04",
    "TRTENDT": "2024-12-03",
    "STUDYID": "ONCOLOGY-001",
    "AVISIT": "Visit 1",
    "AVISITN": 1,
    "ADY": 0,
    "TRLOC": "lung",
    "TRGRPID": "T07",
    "TRLNKID": "T07",
    "TRTESTCD": "LDIAM",
    "TRTEST": "Longest Diameter",
    "TRORRES": "1.9",
    "TRORRESU": "cm",
    "TRSTRESN": 1.943,
    "TRSTRESU": "cm"
  },
  {
    "USUBJID": "002-037",
    "ARM": "Drug A 200 mg QD",
    "ARMCD": "A200QD",
    "ACTARM": "Drug A 200 mg QD",
    "ACTARMCD": "A200QD",
    "TRT01P": "Drug A 200 mg QD",
    "TRT01A": "Drug A 200 mg QD",
    "RANDDT": "2024-04-04",
    "TRTSDT": "2024-04-04",
    "TRTENDT": "2024-12-03",
    "STUDYID": "ONCOLOGY-001",
    "AVISIT": "Visit 2",
    "AVISITN": 2,
    "ADY": 32,
    "TRLOC": "liver",
    "TRGRPID": "T01",
    "TRLNKID": "T01",
    "TRTESTCD": "LDIAM",
    "TRTEST": "Longest Diameter",
    "TRORRES": "4.2",
    "TRORRESU": "cm",
    "TRSTRESN": 4.1523,
    "TRSTRESU": "cm"
  },
  {
    "USUBJID": "002-037",
    "ARM": "Drug A 200 mg QD",
    "ARMCD": "A200QD",
    "ACTARM": "Drug A 200 mg QD",
    "ACTARMCD": "A200QD",
    "TRT01P": "Drug A 200 mg QD",
    "TRT01A": "Drug A 200 mg QD",
    "RANDDT": "2024-04-04",
    "TRTSDT": "2024-04-04",
    "TRTENDT": "2024-12-03",
    "STUDYID": "ONCOLOGY-001",
    "AVISIT": "Visit 2",
    "AVISITN": 2,
    "ADY": 32,
    "TRLOC": "liver",
    "TRGRPID": "T02",
    "TRLNKID": "T02",
    "TRTESTCD": "LDIAM",
    "TRTEST": "Longest Diameter",
    "TRORRES": "3.3",
    "TRORRESU": "cm",
    "TRSTRESN": 3.2781,
    "TRSTRESU": "cm"
  },
  {
    "USUBJID": "002-037",
    "ARM": "Drug A 200 mg QD",
    "ARMCD": "A200QD",
    "ACTARM": "Drug A 200 mg QD",
    "ACTARMCD": "A200QD",
    "TRT01P": "Drug A 200 mg QD",
    "TRT01A": "Drug A 200 mg QD",
    "RANDDT": "2024-04-04",
    "TRTSDT": "2024-04-04",
    "TRTENDT": "2024-12-03",
    "STUDYID": "ONCOLOGY-001",
    "AVISIT": "Visit 2",
    "AVISITN": 2,
    "ADY": 32,
    "TRLOC": "liver",
    "TRGRPID": "T03",
    "TRLNKID": "T03",
    "TRTESTCD": "LDIAM",
    "TRTEST": "Longest Diameter",
    "TRORRES": "2.5",
    "TRORRESU": "cm",
    "TRSTRESN": 2.5132,
    "TRSTRESU": "cm"
  },
  {
    "USUBJID": "002-037",
    "ARM": "Drug A 200 mg QD",
    "ARMCD": "A200QD",
    "ACTARM": "Drug A 200 mg QD",
    "ACTARMCD": "A200QD",
    "TRT01P": "Drug A 200 mg QD",
    "TRT01A": "Drug A 200 mg QD",
    "RANDDT": "2024-04-04",
    "TRTSDT": "2024-04-04",
    "TRTENDT": "2024-12-03",
    "STUDYID": "ONCOLOGY-001",
    "AVISIT": "Visit 2",
    "AVISITN": 2,
    "ADY": 32,
    "TRLOC": "lung",
    "TRGRPID": "T06",
    "TRLNKID": "T06",
    "TRTESTCD": "LDIAM",
    "TRTEST": "Longest Diameter",
    "TRORRES": "3.0",
    "TRORRESU": "cm",
    "TRSTRESN": 2.9503,
    "TRSTRESU": "cm"
  },
  {
    "USUBJID": "002-037",
    "ARM": "Drug A 200 mg QD",
    "ARMCD": "A200QD",
    "ACTARM": "Drug A 200 mg QD",
    "ACTARMCD": "A200QD",
    "TRT01P": "Drug A 200 mg QD",
    "TRT01A": "Drug A 200 mg QD",
    "RANDDT": "2024-04-04",
    "TRTSDT": "2024-04-04",
    "TRTENDT": "2024-12-03",
    "STUDYID": "ONCOLOGY-001",
    "AVISIT": "Visit 2",
    "AVISITN": 2,
    "ADY": 32,
    "TRLOC": "lung",
    "TRGRPID": "T07",
    "TRLNKID": "T07",
    "TRTESTCD": "LDIAM",
    "TRTEST": "Longest Diameter",
    "TRORRES": "2.1",
    "TRORRESU": "cm",
    "TRSTRESN": 2.0762,
    "TRSTRESU": "cm"
  },
  {
    "USUBJID": "002-037",
    "ARM": "Drug A 200 mg QD",
    "ARMCD": "A200QD",
    "ACTARM": "Drug A 200 mg QD",
    "ACTARMCD": "A200QD",
    "TRT01P": "Drug A 200 mg QD",
    "TRT01A": "Drug A 200 mg QD",
    "RANDDT": "2024-04-04",
    "TRTSDT": "2024-04-04",
    "TRTENDT": "2024-12-03",
    "STUDYID": "ONCOLOGY-001",
    "AVISIT": "Visit 5",
    "AVISITN": 5,
    "ADY": 174,
    "TRLOC": "liver",
    "TRGRPID": "T01/T02",
    "TRLNKID": "T01/T02",
    "TRTESTCD": "LDIAM",
    "TRTEST": "Longest Diameter",
    "TRORRES": "6.4",
    "TRORRESU": "cm",
    "TRSTRESN": 6.3797,
    "TRSTRESU": "cm"
  },
  {
    "USUBJID": "002-037",
    "ARM": "Drug A 200 mg QD",
    "ARMCD": "A200QD",
    "ACTARM": "Drug A 200 mg QD",
    "ACTARMCD": "A200QD",
    "TRT01P": "Drug A 200 mg QD",
    "TRT01A": "Drug A 200 mg QD",
    "RANDDT": "2024-04-04",
    "TRTSDT": "2024-04-04",
    "TRTENDT": "2024-12-03",
    "STUDYID": "ONCOLOGY-001",
    "AVISIT": "Visit 5",
    "AVISITN": 5,
    "ADY": 174,
    "TRLOC": "liver",
    "TRGRPID": "T03.1",
    "TRLNKID": "T03.1",
    "TRTESTCD": "LDIAM",
    "TRTEST": "Longest Diameter",
    "TRORRES": "1.8",
    "TRORRESU": "cm",
    "TRSTRESN": 1.8076,
    "TRSTRESU": "cm"
  },
  {
    "USUBJID": "002-037",
    "ARM": "Drug A 200 mg QD",
    "ARMCD": "A200QD",
    "ACTARM": "Drug A 200 mg QD",
    "ACTARMCD": "A200QD",
    "TRT01P": "Drug A 200 mg QD",
    "TRT01A": "Drug A 200 mg QD",
    "RANDDT": "2024-04-04",
    "TRTSDT": "2024-04-04",
    "TRTENDT": "2024-12-03",
    "STUDYID": "ONCOLOGY-001",
    "AVISIT": "Visit 5",
    "AVISITN": 5,
    "ADY": 174,
    "TRLOC": "liver",
    "TRGRPID": "T03.2",
    "TRLNKID": "T03.2",
    "TRTESTCD": "LDIAM",
    "TRTEST": "Longest Diameter",
    "TRORRES": "1.6",
    "TRORRESU": "cm",
    "TRSTRESN": 1.5949,
    "TRSTRESU": "cm"
  },
  {
    "USUBJID": "002-037",
    "ARM": "Drug A 200 mg QD",
    "ARMCD": "A200QD",
    "ACTARM": "Drug A 200 mg QD",
    "ACTARMCD": "A200QD",
    "TRT01P": "Drug A 200 mg QD",
    "TRT01A": "Drug A 200 mg QD",
    "RANDDT": "2024-04-04",
    "TRTSDT": "2024-04-04",
    "TRTENDT": "2024-12-03",
    "STUDYID": "ONCOLOGY-001",
    "AVISIT": "Visit 5",
    "AVISITN": 5,
    "ADY": 174,
    "TRLOC": "lung",
    "TRGRPID": "T06/T07",
    "TRLNKID": "T06/T07",
    "TRTESTCD": "LDIAM",
    "TRTEST": "Longest Diameter",
    "TRORRES": "4.6",
    "TRORRESU": "cm",
    "TRSTRESN": 4.5721,
    "TRSTRESU": "cm"
  },
  {
    "USUBJID": "002-037",
    "ARM": "Drug A 200 mg QD",
    "ARMCD": "A200QD",
    "ACTARM": "Drug A 200 mg QD",
    "ACTARMCD": "A200QD",
    "TRT01P": "Drug A 200 mg QD",
    "TRT01A": "Drug A 200 mg QD",
    "RANDDT": "2024-04-04",
    "TRTSDT": "2024-04-04",
    "TRTENDT": "2024-12-03",
    "STUDYID": "ONCOLOGY-001",
    "AVISIT": "Visit 6",
    "AVISITN": 6,
    "ADY": 229,
    "TRLOC": "liver",
    "TRGRPID": "T01/T02",
    "TRLNKID": "T01/T02",
    "TRTESTCD": "LDIAM",
    "TRTEST": "Longest Diameter",
    "TRORRES": "0.0",
